t_s,ax,ay,az
0.0000,0.0000,0.0000,1.0114
0.0050,0.0000,0.0000,1.1505
0.0100,0.0000,0.0000,0.8892
0.0150,0.0000,0.0000,1.1205
0.0200,0.0000,0.0000,0.9708
0.0250,0.0000,0.0000,0.9710
0.0300,0.0000,0.0000,1.2308
0.0350,0.0000,0.0000,1.0222
0.0400,0.0000,0.0000,0.9986
0.0450,0.0000,0.0000,1.0918
0.0500,0.0000,0.0000,1.1399
0.0550,0.0000,0.0000,1.0015
0.0600,0.0000,0.0000,1.0762
0.0650,0.0000,0.0000,0.8893
0.0700,0.0000,0.0000,0.9626
0.0750,0.0000,0.0000,0.9545
0.0800,0.0000,0.0000,0.8476
0.0850,0.0000,0.0000,0.8270
0.0900,0.0000,0.0000,0.8132
0.0950,0.0000,0.0000,0.9803
0.1000,0.0000,0.0000,0.9887
0.1050,0.0000,0.0000,0.9714
0.1100,0.0000,0.0000,1.0186
0.1150,0.0000,0.0000,0.8505
0.1200,0.0000,0.0000,1.0017
0.1250,0.0000,0.0000,1.0402
0.1300,0.0000,0.0000,1.1023
0.1350,0.0000,0.0000,0.9110
0.1400,0.0000,0.0000,0.9651
0.1450,0.0000,0.0000,0.7717
0.1500,0.0000,0.0000,0.9535
0.1550,0.0000,0.0000,0.7508
0.1600,0.0000,0.0000,0.8445
0.1650,0.0000,0.0000,1.1475
0.1700,0.0000,0.0000,0.7516
0.1750,0.0000,0.0000,1.1120
0.1800,0.0000,0.0000,1.0560
0.1850,0.0000,0.0000,0.9796
0.1900,0.0000,0.0000,1.0726
0.1950,0.0000,0.0000,1.0813
0.2000,0.0000,0.0000,1.1439
0.2050,0.0000,0.0000,0.9912
0.2100,0.0000,0.0000,0.9482
0.2150,0.0000,0.0000,0.9472
0.2200,0.0000,0.0000,0.9018
0.2250,0.0000,0.0000,1.0152
0.2300,0.0000,0.0000,0.9267
0.2350,0.0000,0.0000,1.1497
0.2400,0.0000,0.0000,0.7975
0.2450,0.0000,0.0000,0.8910
0.2500,0.0000,0.0000,0.9083
0.2550,0.0000,0.0000,0.7720
0.2600,0.0000,0.0000,1.2518
0.2650,0.0000,0.0000,0.7349
0.2700,0.0000,0.0000,0.9904
0.2750,0.0000,0.0000,0.9617
0.2800,0.0000,0.0000,1.2239
0.2850,0.0000,0.0000,0.7873
0.2900,0.0000,0.0000,1.1546
0.2950,0.0000,0.0000,0.9386
0.3000,0.0000,0.0000,1.0082
0.3050,0.0000,0.0000,0.9467
0.3100,0.0000,0.0000,1.1044
0.3150,0.0000,0.0000,0.8915
0.3200,0.0000,0.0000,1.0189
0.3250,0.0000,0.0000,1.0712
0.3300,0.0000,0.0000,1.2500
0.3350,0.0000,0.0000,0.7409
0.3400,0.0000,0.0000,1.2129
0.3450,0.0000,0.0000,1.1440
0.3500,0.0000,0.0000,0.9726
0.3550,0.0000,0.0000,1.0676
0.3600,0.0000,0.0000,0.9755
0.3650,0.0000,0.0000,1.2294
0.3700,0.0000,0.0000,1.0573
0.3750,0.0000,0.0000,1.0066
0.3800,0.0000,0.0000,1.0055
0.3850,0.0000,0.0000,1.0092
0.3900,0.0000,0.0000,1.0123
0.3950,0.0000,0.0000,0.9284
0.4000,0.0000,0.0000,1.2812
0.4050,0.0000,0.0000,0.8053
0.4100,0.0000,0.0000,0.6022
0.4150,0.0000,0.0000,1.0205
0.4200,0.0000,0.0000,1.0180
0.4250,0.0000,0.0000,1.0806
0.4300,0.0000,0.0000,1.0117
0.4350,0.0000,0.0000,1.0188
0.4400,0.0000,0.0000,1.0768
0.4450,0.0000,0.0000,1.1534
0.4500,0.0000,0.0000,0.9837
0.4550,0.0000,0.0000,0.9931
0.4600,0.0000,0.0000,1.2710
0.4650,0.0000,0.0000,1.1020
0.4700,0.0000,0.0000,0.9205
0.4750,0.0000,0.0000,1.3179
0.4800,0.0000,0.0000,1.1324
0.4850,0.0000,0.0000,0.9689
0.4900,0.0000,0.0000,0.8990
0.4950,0.0000,0.0000,1.0760
0.5000,0.0000,0.0000,0.9406
0.5050,0.0000,0.0000,0.9138
0.5100,0.0000,0.0000,0.8855
0.5150,0.0000,0.0000,0.9805
0.5200,0.0000,0.0000,1.1744
0.5250,0.0000,0.0000,0.9898
0.5300,0.0000,0.0000,0.8681
0.5350,0.0000,0.0000,1.1226
0.5400,0.0000,0.0000,1.0504
0.5450,0.0000,0.0000,1.1441
0.5500,0.0000,0.0000,1.1872
0.5550,0.0000,0.0000,1.0230
0.5600,0.0000,0.0000,1.0261
0.5650,0.0000,0.0000,1.0383
0.5700,0.0000,0.0000,0.9078
0.5750,0.0000,0.0000,1.1245
0.5800,0.0000,0.0000,1.2091
0.5850,0.0000,0.0000,1.0655
0.5900,0.0000,0.0000,1.0163
0.5950,0.0000,0.0000,1.0139
0.6000,0.0000,0.0000,0.9516
0.6050,0.0000,0.0000,0.9490
0.6100,0.0000,0.0000,0.9975
0.6150,0.0000,0.0000,0.9448
0.6200,0.0000,0.0000,0.9935
0.6250,0.0000,0.0000,0.8569
0.6300,0.0000,0.0000,1.0884
0.6350,0.0000,0.0000,1.0524
0.6400,0.0000,0.0000,0.9084
0.6450,0.0000,0.0000,0.7711
0.6500,0.0000,0.0000,1.0461
0.6550,0.0000,0.0000,1.1797
0.6600,0.0000,0.0000,0.9593
0.6650,0.0000,0.0000,0.9895
0.6700,0.0000,0.0000,0.9794
0.6750,0.0000,0.0000,1.1262
0.6800,0.0000,0.0000,0.9380
0.6850,0.0000,0.0000,1.1664
0.6900,0.0000,0.0000,1.0118
0.6950,0.0000,0.0000,1.1593
0.7000,0.0000,0.0000,1.0523
0.7050,0.0000,0.0000,1.0208
0.7100,0.0000,0.0000,0.8713
0.7150,0.0000,0.0000,0.9663
0.7200,0.0000,0.0000,1.0175
0.7250,0.0000,0.0000,1.1281
0.7300,0.0000,0.0000,1.0784
0.7350,0.0000,0.0000,0.9655
0.7400,0.0000,0.0000,1.0984
0.7450,0.0000,0.0000,1.1678
0.7500,0.0000,0.0000,1.0316
0.7550,0.0000,0.0000,0.9968
0.7600,0.0000,0.0000,1.0023
0.7650,0.0000,0.0000,1.1469
0.7700,0.0000,0.0000,1.1142
0.7750,0.0000,0.0000,0.9381
0.7800,0.0000,0.0000,1.0947
0.7850,0.0000,0.0000,0.9922
0.7900,0.0000,0.0000,0.9597
0.7950,0.0000,0.0000,1.1986
0.8000,0.0000,0.0000,1.1484
0.8050,0.0000,0.0000,0.9629
0.8100,0.0000,0.0000,1.0595
0.8150,0.0000,0.0000,1.1101
0.8200,0.0000,0.0000,0.9732
0.8250,0.0000,0.0000,1.0355
0.8300,0.0000,0.0000,1.1300
0.8350,0.0000,0.0000,0.8353
0.8400,0.0000,0.0000,1.0893
0.8450,0.0000,0.0000,1.1386
0.8500,0.0000,0.0000,1.1105
0.8550,0.0000,0.0000,0.8890
0.8600,0.0000,0.0000,1.0882
0.8650,0.0000,0.0000,0.9463
0.8700,0.0000,0.0000,1.1183
0.8750,0.0000,0.0000,1.1224
0.8800,0.0000,0.0000,1.0758
0.8850,0.0000,0.0000,0.9579
0.8900,0.0000,0.0000,0.9788
0.8950,0.0000,0.0000,1.1521
0.9000,0.0000,0.0000,0.9418
0.9050,0.0000,0.0000,1.1090
0.9100,0.0000,0.0000,1.1109
0.9150,0.0000,0.0000,1.0160
0.9200,0.0000,0.0000,1.3367
0.9250,0.0000,0.0000,1.0577
0.9300,0.0000,0.0000,1.3067
0.9350,0.0000,0.0000,0.8071
0.9400,0.0000,0.0000,0.7798
0.9450,0.0000,0.0000,1.1667
0.9500,0.0000,0.0000,1.1251
0.9550,0.0000,0.0000,1.0112
0.9600,0.0000,0.0000,1.0422
0.9650,0.0000,0.0000,0.8201
0.9700,0.0000,0.0000,0.9729
0.9750,0.0000,0.0000,0.9242
0.9800,0.0000,0.0000,1.0215
0.9850,0.0000,0.0000,1.1543
0.9900,0.0000,0.0000,1.0542
0.9950,0.0000,0.0000,1.0923
1.0000,0.0000,0.0000,0.9638
1.0050,0.0000,0.0000,0.9952
1.0100,0.0000,0.0000,1.0607
1.0150,0.0000,0.0000,1.0132
1.0200,0.0000,0.0000,1.1987
1.0250,0.0000,0.0000,0.9417
1.0300,0.0000,0.0000,1.2735
1.0350,0.0000,0.0000,0.9287
1.0400,0.0000,0.0000,1.1734
1.0450,0.0000,0.0000,0.9533
1.0500,0.0000,0.0000,1.2437
1.0550,0.0000,0.0000,1.0621
1.0600,0.0000,0.0000,1.0933
1.0650,0.0000,0.0000,1.1347
1.0700,0.0000,0.0000,0.9689
1.0750,0.0000,0.0000,0.9199
1.0800,0.0000,0.0000,0.8015
1.0850,0.0000,0.0000,1.1909
1.0900,0.0000,0.0000,0.9607
1.0950,0.0000,0.0000,0.9730
1.1000,0.0000,0.0000,1.0401
1.1050,0.0000,0.0000,1.2822
1.1100,0.0000,0.0000,0.8359
1.1150,0.0000,0.0000,1.0730
1.1200,0.0000,0.0000,0.9954
1.1250,0.0000,0.0000,1.1065
1.1300,0.0000,0.0000,0.8265
1.1350,0.0000,0.0000,0.9944
1.1400,0.0000,0.0000,1.1427
1.1450,0.0000,0.0000,1.2287
1.1500,0.0000,0.0000,1.2330
1.1550,0.0000,0.0000,0.9385
1.1600,0.0000,0.0000,1.0474
1.1650,0.0000,0.0000,1.0274
1.1700,0.0000,0.0000,0.8751
1.1750,0.0000,0.0000,0.8671
1.1800,0.0000,0.0000,1.1305
1.1850,0.0000,0.0000,1.0689
1.1900,0.0000,0.0000,1.0220
1.1950,0.0000,0.0000,1.1847
1.2000,0.0000,0.0000,0.9183
1.2050,0.0000,0.0000,1.1014
1.2100,0.0000,0.0000,1.0391
1.2150,0.0000,0.0000,1.0305
1.2200,0.0000,0.0000,1.0961
1.2250,0.0000,0.0000,1.0581
1.2300,0.0000,0.0000,1.0687
1.2350,0.0000,0.0000,1.0682
1.2400,0.0000,0.0000,1.2686
1.2450,0.0000,0.0000,0.9984
1.2500,0.0000,0.0000,1.1568
1.2550,0.0000,0.0000,1.1080
1.2600,0.0000,0.0000,0.9927
1.2650,0.0000,0.0000,1.1298
1.2700,0.0000,0.0000,0.9311
1.2750,0.0000,0.0000,1.1729
1.2800,0.0000,0.0000,0.9362
1.2850,0.0000,0.0000,0.9742
1.2900,0.0000,0.0000,1.0714
1.2950,0.0000,0.0000,1.1321
1.3000,0.0000,0.0000,1.1408
1.3050,0.0000,0.0000,1.1387
1.3100,0.0000,0.0000,1.0063
1.3150,0.0000,0.0000,0.9160
1.3200,0.0000,0.0000,1.0964
1.3250,0.0000,0.0000,1.0662
1.3300,0.0000,0.0000,0.9153
1.3350,0.0000,0.0000,1.1461
1.3400,0.0000,0.0000,1.0528
1.3450,0.0000,0.0000,0.9136
1.3500,0.0000,0.0000,1.0811
1.3550,0.0000,0.0000,0.8687
1.3600,0.0000,0.0000,0.9220
1.3650,0.0000,0.0000,1.0752
1.3700,0.0000,0.0000,0.8396
1.3750,0.0000,0.0000,1.0306
1.3800,0.0000,0.0000,0.8636
1.3850,0.0000,0.0000,1.1138
1.3900,0.0000,0.0000,0.9376
1.3950,0.0000,0.0000,1.0464
1.4000,0.0000,0.0000,0.8438
1.4050,0.0000,0.0000,0.9824
1.4100,0.0000,0.0000,1.1369
1.4150,0.0000,0.0000,1.0777
1.4200,0.0000,0.0000,0.8018
1.4250,0.0000,0.0000,1.1329
1.4300,0.0000,0.0000,1.1286
1.4350,0.0000,0.0000,0.9760
1.4400,0.0000,0.0000,1.1908
1.4450,0.0000,0.0000,0.8932
1.4500,0.0000,0.0000,1.0096
1.4550,0.0000,0.0000,1.1531
1.4600,0.0000,0.0000,1.1762
1.4650,0.0000,0.0000,1.1722
1.4700,0.0000,0.0000,0.8868
1.4750,0.0000,0.0000,0.8040
1.4800,0.0000,0.0000,1.0642
1.4850,0.0000,0.0000,0.8450
1.4900,0.0000,0.0000,1.0006
1.4950,0.0000,0.0000,0.8621
1.5000,0.0000,0.0000,1.1428
1.5050,0.0000,0.0000,1.1114
1.5100,0.0000,0.0000,1.0813
1.5150,0.0000,0.0000,1.0162
1.5200,0.0000,0.0000,1.0191
1.5250,0.0000,0.0000,0.9775
1.5300,0.0000,0.0000,1.0587
1.5350,0.0000,0.0000,1.0422
1.5400,0.0000,0.0000,1.0669
1.5450,0.0000,0.0000,0.9599
1.5500,0.0000,0.0000,1.2387
1.5550,0.0000,0.0000,1.0443
1.5600,0.0000,0.0000,1.1773
1.5650,0.0000,0.0000,1.1692
1.5700,0.0000,0.0000,0.9036
1.5750,0.0000,0.0000,0.8062
1.5800,0.0000,0.0000,1.1590
1.5850,0.0000,0.0000,0.9612
1.5900,0.0000,0.0000,1.0170
1.5950,0.0000,0.0000,0.9756
1.6000,0.0000,0.0000,1.0220
1.6050,0.0000,0.0000,0.8631
1.6100,0.0000,0.0000,0.9929
1.6150,0.0000,0.0000,0.9492
1.6200,0.0000,0.0000,1.0026
1.6250,0.0000,0.0000,0.7237
1.6300,0.0000,0.0000,1.1020
1.6350,0.0000,0.0000,1.0428
1.6400,0.0000,0.0000,0.7953
1.6450,0.0000,0.0000,0.9139
1.6500,0.0000,0.0000,1.0053
1.6550,0.0000,0.0000,1.0766
1.6600,0.0000,0.0000,1.0007
1.6650,0.0000,0.0000,1.1662
1.6700,0.0000,0.0000,1.0024
1.6750,0.0000,0.0000,0.8792
1.6800,0.0000,0.0000,0.9176
1.6850,0.0000,0.0000,1.0875
1.6900,0.0000,0.0000,0.9242
1.6950,0.0000,0.0000,1.0982
1.7000,0.0000,0.0000,1.1193
1.7050,0.0000,0.0000,1.0670
1.7100,0.0000,0.0000,1.1180
1.7150,0.0000,0.0000,0.9746
1.7200,0.0000,0.0000,0.9938
1.7250,0.0000,0.0000,0.9235
1.7300,0.0000,0.0000,0.9208
1.7350,0.0000,0.0000,0.8058
1.7400,0.0000,0.0000,0.9265
1.7450,0.0000,0.0000,0.8641
1.7500,0.0000,0.0000,0.8209
1.7550,0.0000,0.0000,1.0093
1.7600,0.0000,0.0000,1.0458
1.7650,0.0000,0.0000,0.9498
1.7700,0.0000,0.0000,1.1545
1.7750,0.0000,0.0000,1.1028
1.7800,0.0000,0.0000,1.1148
1.7850,0.0000,0.0000,0.9165
1.7900,0.0000,0.0000,0.8094
1.7950,0.0000,0.0000,1.0550
1.8000,0.0000,0.0000,1.0246
1.8050,0.0000,0.0000,1.0742
1.8100,0.0000,0.0000,1.0367
1.8150,0.0000,0.0000,1.1374
1.8200,0.0000,0.0000,0.9512
1.8250,0.0000,0.0000,1.0654
1.8300,0.0000,0.0000,0.8774
1.8350,0.0000,0.0000,0.7073
1.8400,0.0000,0.0000,0.9306
1.8450,0.0000,0.0000,1.1634
1.8500,0.0000,0.0000,0.7819
1.8550,0.0000,0.0000,1.1047
1.8600,0.0000,0.0000,0.9006
1.8650,0.0000,0.0000,0.9338
1.8700,0.0000,0.0000,0.9865
1.8750,0.0000,0.0000,1.0063
1.8800,0.0000,0.0000,0.8635
1.8850,0.0000,0.0000,0.9951
1.8900,0.0000,0.0000,1.0328
1.8950,0.0000,0.0000,1.0793
1.9000,0.0000,0.0000,0.8882
1.9050,0.0000,0.0000,1.1645
1.9100,0.0000,0.0000,1.2067
1.9150,0.0000,0.0000,1.2672
1.9200,0.0000,0.0000,0.8161
1.9250,0.0000,0.0000,0.9974
1.9300,0.0000,0.0000,0.7531
1.9350,0.0000,0.0000,1.0212
1.9400,0.0000,0.0000,1.0420
1.9450,0.0000,0.0000,0.8370
1.9500,0.0000,0.0000,0.7842
1.9550,0.0000,0.0000,0.9966
1.9600,0.0000,0.0000,1.0491
1.9650,0.0000,0.0000,0.8782
1.9700,0.0000,0.0000,0.9416
1.9750,0.0000,0.0000,0.6694
1.9800,0.0000,0.0000,0.8873
1.9850,0.0000,0.0000,0.9894
1.9900,0.0000,0.0000,0.9896
1.9950,0.0000,0.0000,1.1610
2.0000,0.0000,0.0000,0.8337
2.0050,0.0000,0.0000,0.7000
2.0100,0.0000,0.0000,1.0241
2.0150,0.0000,0.0000,0.8985
2.0200,0.0000,0.0000,1.0035
2.0250,0.0000,0.0000,1.0550
2.0300,0.0000,0.0000,1.0404
2.0350,0.0000,0.0000,1.1410
2.0400,0.0000,0.0000,1.1300
2.0450,0.0000,0.0000,0.7675
2.0500,0.0000,0.0000,0.9594
2.0550,0.0000,0.0000,1.2067
2.0600,0.0000,0.0000,0.9174
2.0650,0.0000,0.0000,1.0819
2.0700,0.0000,0.0000,0.9588
2.0750,0.0000,0.0000,0.9148
2.0800,0.0000,0.0000,1.1548
2.0850,0.0000,0.0000,1.0895
2.0900,0.0000,0.0000,0.9350
2.0950,0.0000,0.0000,1.0727
2.1000,0.0000,0.0000,0.8059
2.1050,0.0000,0.0000,0.8762
2.1100,0.0000,0.0000,1.0712
2.1150,0.0000,0.0000,0.9673
2.1200,0.0000,0.0000,0.8348
2.1250,0.0000,0.0000,1.0160
2.1300,0.0000,0.0000,1.0012
2.1350,0.0000,0.0000,1.1156
2.1400,0.0000,0.0000,1.0759
2.1450,0.0000,0.0000,0.9277
2.1500,0.0000,0.0000,0.9024
2.1550,0.0000,0.0000,0.9436
2.1600,0.0000,0.0000,0.9324
2.1650,0.0000,0.0000,1.1351
2.1700,0.0000,0.0000,1.1500
2.1750,0.0000,0.0000,1.1219
2.1800,0.0000,0.0000,1.0043
2.1850,0.0000,0.0000,0.9292
2.1900,0.0000,0.0000,1.0667
2.1950,0.0000,0.0000,0.9161
2.2000,0.0000,0.0000,0.9861
2.2050,0.0000,0.0000,0.7576
2.2100,0.0000,0.0000,0.9065
2.2150,0.0000,0.0000,1.1299
2.2200,0.0000,0.0000,0.8336
2.2250,0.0000,0.0000,0.7775
2.2300,0.0000,0.0000,0.9367
2.2350,0.0000,0.0000,1.1562
2.2400,0.0000,0.0000,1.1300
2.2450,0.0000,0.0000,0.9125
2.2500,0.0000,0.0000,0.8981
2.2550,0.0000,0.0000,0.9420
2.2600,0.0000,0.0000,0.8433
2.2650,0.0000,0.0000,0.9591
2.2700,0.0000,0.0000,0.9186
2.2750,0.0000,0.0000,0.7773
2.2800,0.0000,0.0000,0.8847
2.2850,0.0000,0.0000,0.9232
2.2900,0.0000,0.0000,0.8506
2.2950,0.0000,0.0000,0.8194
2.3000,0.0000,0.0000,1.0621
2.3050,0.0000,0.0000,1.1808
2.3100,0.0000,0.0000,0.9187
2.3150,0.0000,0.0000,0.9020
2.3200,0.0000,0.0000,1.0131
2.3250,0.0000,0.0000,0.9252
2.3300,0.0000,0.0000,0.8586
2.3350,0.0000,0.0000,1.1194
2.3400,0.0000,0.0000,0.8273
2.3450,0.0000,0.0000,0.8644
2.3500,0.0000,0.0000,0.8723
2.3550,0.0000,0.0000,0.8457
2.3600,0.0000,0.0000,0.9231
2.3650,0.0000,0.0000,1.0207
2.3700,0.0000,0.0000,1.1244
2.3750,0.0000,0.0000,1.0309
2.3800,0.0000,0.0000,0.9555
2.3850,0.0000,0.0000,0.8010
2.3900,0.0000,0.0000,0.9437
2.3950,0.0000,0.0000,0.8380
2.4000,0.0000,0.0000,0.9392
2.4050,0.0000,0.0000,1.0682
2.4100,0.0000,0.0000,0.9752
2.4150,0.0000,0.0000,0.9254
2.4200,0.0000,0.0000,0.8602
2.4250,0.0000,0.0000,0.9478
2.4300,0.0000,0.0000,0.9637
2.4350,0.0000,0.0000,0.8390
2.4400,0.0000,0.0000,0.8897
2.4450,0.0000,0.0000,1.0561
2.4500,0.0000,0.0000,0.7509
2.4550,0.0000,0.0000,0.8970
2.4600,0.0000,0.0000,0.8101
2.4650,0.0000,0.0000,1.1357
2.4700,0.0000,0.0000,1.0227
2.4750,0.0000,0.0000,1.0118
2.4800,0.0000,0.0000,0.9976
2.4850,0.0000,0.0000,0.9844
2.4900,0.0000,0.0000,0.9850
2.4950,0.0000,0.0000,0.7598
2.5000,0.0000,0.0000,0.9809
2.5050,0.0000,0.0000,1.0213
2.5100,0.0000,0.0000,0.7786
2.5150,0.0000,0.0000,1.0490
2.5200,0.0000,0.0000,1.0301
2.5250,0.0000,0.0000,0.7674
2.5300,0.0000,0.0000,0.8935
2.5350,0.0000,0.0000,0.9132
2.5400,0.0000,0.0000,0.8869
2.5450,0.0000,0.0000,0.9971
2.5500,0.0000,0.0000,0.7970
2.5550,0.0000,0.0000,0.9234
2.5600,0.0000,0.0000,0.9773
2.5650,0.0000,0.0000,1.0373
2.5700,0.0000,0.0000,0.9563
2.5750,0.0000,0.0000,0.9214
2.5800,0.0000,0.0000,1.0334
2.5850,0.0000,0.0000,0.7119
2.5900,0.0000,0.0000,1.0627
2.5950,0.0000,0.0000,0.9139
2.6000,0.0000,0.0000,0.8008
2.6050,0.0000,0.0000,0.8995
2.6100,0.0000,0.0000,0.7310
2.6150,0.0000,0.0000,0.7058
2.6200,0.0000,0.0000,0.9120
2.6250,0.0000,0.0000,0.8581
2.6300,0.0000,0.0000,1.0395
2.6350,0.0000,0.0000,0.8452
2.6400,0.0000,0.0000,0.7963
2.6450,0.0000,0.0000,0.8369
2.6500,0.0000,0.0000,1.1578
2.6550,0.0000,0.0000,0.9552
2.6600,0.0000,0.0000,0.8789
2.6650,0.0000,0.0000,0.8336
2.6700,0.0000,0.0000,0.8207
2.6750,0.0000,0.0000,0.9330
2.6800,0.0000,0.0000,1.0041
2.6850,0.0000,0.0000,1.0912
2.6900,0.0000,0.0000,1.0907
2.6950,0.0000,0.0000,0.9860
2.7000,0.0000,0.0000,0.8744
2.7050,0.0000,0.0000,0.8504
2.7100,0.0000,0.0000,0.6763
2.7150,0.0000,0.0000,0.8318
2.7200,0.0000,0.0000,1.0047
2.7250,0.0000,0.0000,0.9138
2.7300,0.0000,0.0000,0.9987
2.7350,0.0000,0.0000,0.7931
2.7400,0.0000,0.0000,1.0627
2.7450,0.0000,0.0000,0.9907
2.7500,0.0000,0.0000,0.9605
2.7550,0.0000,0.0000,1.0037
2.7600,0.0000,0.0000,0.6875
2.7650,0.0000,0.0000,0.8892
2.7700,0.0000,0.0000,0.8487
2.7750,0.0000,0.0000,1.1740
2.7800,0.0000,0.0000,0.9348
2.7850,0.0000,0.0000,0.8964
2.7900,0.0000,0.0000,1.0596
2.7950,0.0000,0.0000,0.8311
2.8000,0.0000,0.0000,1.1285
2.8050,0.0000,0.0000,0.8737
2.8100,0.0000,0.0000,0.9512
2.8150,0.0000,0.0000,0.8487
2.8200,0.0000,0.0000,1.0558
2.8250,0.0000,0.0000,0.6985
2.8300,0.0000,0.0000,1.0423
2.8350,0.0000,0.0000,0.8613
2.8400,0.0000,0.0000,0.9659
2.8450,0.0000,0.0000,0.8221
2.8500,0.0000,0.0000,0.9879
2.8550,0.0000,0.0000,0.9832
2.8600,0.0000,0.0000,1.0319
2.8650,0.0000,0.0000,0.9991
2.8700,0.0000,0.0000,1.0365
2.8750,0.0000,0.0000,1.0812
2.8800,0.0000,0.0000,0.9156
2.8850,0.0000,0.0000,0.8211
2.8900,0.0000,0.0000,0.8096
2.8950,0.0000,0.0000,1.0449
2.9000,0.0000,0.0000,0.9184
2.9050,0.0000,0.0000,1.0901
2.9100,0.0000,0.0000,0.9696
2.9150,0.0000,0.0000,0.8431
2.9200,0.0000,0.0000,1.0735
2.9250,0.0000,0.0000,1.1983
2.9300,0.0000,0.0000,0.9438
2.9350,0.0000,0.0000,0.8532
2.9400,0.0000,0.0000,0.8647
2.9450,0.0000,0.0000,1.0734
2.9500,0.0000,0.0000,0.8967
2.9550,0.0000,0.0000,0.9186
2.9600,0.0000,0.0000,1.0498
2.9650,0.0000,0.0000,0.9694
2.9700,0.0000,0.0000,0.9822
2.9750,0.0000,0.0000,0.9034
2.9800,0.0000,0.0000,0.8925
2.9850,0.0000,0.0000,0.9892
2.9900,0.0000,0.0000,0.9884
2.9950,0.0000,0.0000,1.0413
3.0000,0.0000,0.0000,0.9107
3.0050,0.0000,0.0000,1.0124
3.0100,0.0000,0.0000,1.0285
3.0150,0.0000,0.0000,0.9817
3.0200,0.0000,0.0000,1.0406
3.0250,0.0000,0.0000,1.0939
3.0300,0.0000,0.0000,0.9967
3.0350,0.0000,0.0000,0.9827
3.0400,0.0000,0.0000,0.8574
3.0450,0.0000,0.0000,1.0135
3.0500,0.0000,0.0000,0.9633
3.0550,0.0000,0.0000,0.9377
3.0600,0.0000,0.0000,0.8763
3.0650,0.0000,0.0000,1.0446
3.0700,0.0000,0.0000,1.2833
3.0750,0.0000,0.0000,1.0285
3.0800,0.0000,0.0000,0.9874
3.0850,0.0000,0.0000,1.0298
3.0900,0.0000,0.0000,0.9068
3.0950,0.0000,0.0000,0.9897
3.1000,0.0000,0.0000,0.8992
3.1050,0.0000,0.0000,0.9022
3.1100,0.0000,0.0000,1.0075
3.1150,0.0000,0.0000,1.0075
3.1200,0.0000,0.0000,0.9670
3.1250,0.0000,0.0000,0.8856
3.1300,0.0000,0.0000,1.0129
3.1350,0.0000,0.0000,0.8512
3.1400,0.0000,0.0000,1.0748
3.1450,0.0000,0.0000,0.9411
3.1500,0.0000,0.0000,0.9831
3.1550,0.0000,0.0000,1.0778
3.1600,0.0000,0.0000,1.0508
3.1650,0.0000,0.0000,0.8291
3.1700,0.0000,0.0000,0.9550
3.1750,0.0000,0.0000,1.0294
3.1800,0.0000,0.0000,0.8552
3.1850,0.0000,0.0000,0.6977
3.1900,0.0000,0.0000,0.9781
3.1950,0.0000,0.0000,0.9815
3.2000,0.0000,0.0000,1.0389
3.2050,0.0000,0.0000,0.9979
3.2100,0.0000,0.0000,1.0042
3.2150,0.0000,0.0000,1.0177
3.2200,0.0000,0.0000,1.1544
3.2250,0.0000,0.0000,1.0480
3.2300,0.0000,0.0000,1.0554
3.2350,0.0000,0.0000,0.9437
3.2400,0.0000,0.0000,1.1260
3.2450,0.0000,0.0000,0.9694
3.2500,0.0000,0.0000,1.0807
3.2550,0.0000,0.0000,0.7397
3.2600,0.0000,0.0000,1.0226
3.2650,0.0000,0.0000,0.9819
3.2700,0.0000,0.0000,0.9388
3.2750,0.0000,0.0000,1.1489
3.2800,0.0000,0.0000,1.0435
3.2850,0.0000,0.0000,0.9785
3.2900,0.0000,0.0000,0.9329
3.2950,0.0000,0.0000,1.2214
3.3000,0.0000,0.0000,1.0865
3.3050,0.0000,0.0000,1.0760
3.3100,0.0000,0.0000,0.9064
3.3150,0.0000,0.0000,1.1547
3.3200,0.0000,0.0000,1.0657
3.3250,0.0000,0.0000,0.9669
3.3300,0.0000,0.0000,0.9872
3.3350,0.0000,0.0000,0.8053
3.3400,0.0000,0.0000,1.0787
3.3450,0.0000,0.0000,0.8703
3.3500,0.0000,0.0000,1.1026
3.3550,0.0000,0.0000,0.9494
3.3600,0.0000,0.0000,0.9280
3.3650,0.0000,0.0000,1.0472
3.3700,0.0000,0.0000,1.0287
3.3750,0.0000,0.0000,0.8689
3.3800,0.0000,0.0000,0.9955
3.3850,0.0000,0.0000,1.0775
3.3900,0.0000,0.0000,0.9753
3.3950,0.0000,0.0000,0.8449
3.4000,0.0000,0.0000,0.9772
3.4050,0.0000,0.0000,0.8917
3.4100,0.0000,0.0000,0.9381
3.4150,0.0000,0.0000,1.0133
3.4200,0.0000,0.0000,1.0018
3.4250,0.0000,0.0000,0.9835
3.4300,0.0000,0.0000,0.8111
3.4350,0.0000,0.0000,1.0513
3.4400,0.0000,0.0000,0.9861
3.4450,0.0000,0.0000,0.9618
3.4500,0.0000,0.0000,1.0295
3.4550,0.0000,0.0000,1.2418
3.4600,0.0000,0.0000,0.8576
3.4650,0.0000,0.0000,0.8201
3.4700,0.0000,0.0000,1.1039
3.4750,0.0000,0.0000,0.9188
3.4800,0.0000,0.0000,1.1691
3.4850,0.0000,0.0000,0.8964
3.4900,0.0000,0.0000,0.9566
3.4950,0.0000,0.0000,1.1148
3.5000,0.0000,0.0000,1.1244
3.5050,0.0000,0.0000,1.0689
3.5100,0.0000,0.0000,1.0707
3.5150,0.0000,0.0000,1.0013
3.5200,0.0000,0.0000,0.9646
3.5250,0.0000,0.0000,0.9934
3.5300,0.0000,0.0000,1.1698
3.5350,0.0000,0.0000,1.1031
3.5400,0.0000,0.0000,1.0212
3.5450,0.0000,0.0000,1.0573
3.5500,0.0000,0.0000,1.1189
3.5550,0.0000,0.0000,1.1616
3.5600,0.0000,0.0000,1.0049
3.5650,0.0000,0.0000,1.0117
3.5700,0.0000,0.0000,1.0610
3.5750,0.0000,0.0000,1.3333
3.5800,0.0000,0.0000,1.0513
3.5850,0.0000,0.0000,1.1744
3.5900,0.0000,0.0000,0.8402
3.5950,0.0000,0.0000,1.1249
3.6000,0.0000,0.0000,0.8564
3.6050,0.0000,0.0000,0.8955
3.6100,0.0000,0.0000,0.9493
3.6150,0.0000,0.0000,1.0083
3.6200,0.0000,0.0000,1.0471
3.6250,0.0000,0.0000,1.0699
3.6300,0.0000,0.0000,1.0533
3.6350,0.0000,0.0000,0.9748
3.6400,0.0000,0.0000,1.3364
3.6450,0.0000,0.0000,1.0747
3.6500,0.0000,0.0000,1.1077
3.6550,0.0000,0.0000,1.2696
3.6600,0.0000,0.0000,1.1441
3.6650,0.0000,0.0000,1.0982
3.6700,0.0000,0.0000,1.0681
3.6750,0.0000,0.0000,1.2524
3.6800,0.0000,0.0000,0.9017
3.6850,0.0000,0.0000,0.9167
3.6900,0.0000,0.0000,1.0485
3.6950,0.0000,0.0000,0.7889
3.7000,0.0000,0.0000,0.9393
3.7050,0.0000,0.0000,1.1666
3.7100,0.0000,0.0000,0.9778
3.7150,0.0000,0.0000,1.0525
3.7200,0.0000,0.0000,1.1157
3.7250,0.0000,0.0000,0.8951
3.7300,0.0000,0.0000,1.0663
3.7350,0.0000,0.0000,0.9595
3.7400,0.0000,0.0000,0.9047
3.7450,0.0000,0.0000,1.0024
3.7500,0.0000,0.0000,1.0287
3.7550,0.0000,0.0000,0.9880
3.7600,0.0000,0.0000,0.9575
3.7650,0.0000,0.0000,1.1500
3.7700,0.0000,0.0000,1.1738
3.7750,0.0000,0.0000,1.1031
3.7800,0.0000,0.0000,1.0257
3.7850,0.0000,0.0000,0.9123
3.7900,0.0000,0.0000,0.9403
3.7950,0.0000,0.0000,0.9067
3.8000,0.0000,0.0000,1.0634
3.8050,0.0000,0.0000,1.1475
3.8100,0.0000,0.0000,1.1475
3.8150,0.0000,0.0000,1.0365
3.8200,0.0000,0.0000,0.9941
3.8250,0.0000,0.0000,1.0612
3.8300,0.0000,0.0000,1.0547
3.8350,0.0000,0.0000,1.1112
3.8400,0.0000,0.0000,1.2161
3.8450,0.0000,0.0000,0.9599
3.8500,0.0000,0.0000,1.2901
3.8550,0.0000,0.0000,0.7920
3.8600,0.0000,0.0000,0.8303
3.8650,0.0000,0.0000,0.8622
3.8700,0.0000,0.0000,0.9205
3.8750,0.0000,0.0000,1.0148
3.8800,0.0000,0.0000,1.2885
3.8850,0.0000,0.0000,0.9600
3.8900,0.0000,0.0000,1.1746
3.8950,0.0000,0.0000,1.0006
3.9000,0.0000,0.0000,1.0618
3.9050,0.0000,0.0000,0.9227
3.9100,0.0000,0.0000,1.3141
3.9150,0.0000,0.0000,1.0399
3.9200,0.0000,0.0000,0.9716
3.9250,0.0000,0.0000,1.3151
3.9300,0.0000,0.0000,1.0666
3.9350,0.0000,0.0000,1.0947
3.9400,0.0000,0.0000,1.0282
3.9450,0.0000,0.0000,0.9470
3.9500,0.0000,0.0000,0.8758
3.9550,0.0000,0.0000,1.0252
3.9600,0.0000,0.0000,1.2383
3.9650,0.0000,0.0000,1.0965
3.9700,0.0000,0.0000,1.0258
3.9750,0.0000,0.0000,1.1728
3.9800,0.0000,0.0000,0.9361
3.9850,0.0000,0.0000,1.2106
3.9900,0.0000,0.0000,1.0453
3.9950,0.0000,0.0000,0.9487
4.0000,0.0000,0.0000,1.1282
4.0050,0.0000,0.0000,1.1089
4.0100,0.0000,0.0000,1.0069
4.0150,0.0000,0.0000,1.0735
4.0200,0.0000,0.0000,1.1644
4.0250,0.0000,0.0000,1.2153
4.0300,0.0000,0.0000,0.9477
4.0350,0.0000,0.0000,0.7358
4.0400,0.0000,0.0000,1.2918
4.0450,0.0000,0.0000,1.0174
4.0500,0.0000,0.0000,0.9992
4.0550,0.0000,0.0000,1.1000
4.0600,0.0000,0.0000,0.9982
4.0650,0.0000,0.0000,1.1729
4.0700,0.0000,0.0000,0.9012
4.0750,0.0000,0.0000,1.0249
4.0800,0.0000,0.0000,0.9000
4.0850,0.0000,0.0000,1.2306
4.0900,0.0000,0.0000,1.0201
4.0950,0.0000,0.0000,1.1801
4.1000,0.0000,0.0000,1.2145
4.1050,0.0000,0.0000,0.9076
4.1100,0.0000,0.0000,1.0235
4.1150,0.0000,0.0000,1.1353
4.1200,0.0000,0.0000,1.0558
4.1250,0.0000,0.0000,1.0339
4.1300,0.0000,0.0000,1.1499
4.1350,0.0000,0.0000,1.1585
4.1400,0.0000,0.0000,0.9795
4.1450,0.0000,0.0000,1.0338
4.1500,0.0000,0.0000,1.1270
4.1550,0.0000,0.0000,1.0752
4.1600,0.0000,0.0000,1.0668
4.1650,0.0000,0.0000,0.9167
4.1700,0.0000,0.0000,1.2588
4.1750,0.0000,0.0000,1.0227
4.1800,0.0000,0.0000,1.0818
4.1850,0.0000,0.0000,1.0458
4.1900,0.0000,0.0000,1.0577
4.1950,0.0000,0.0000,1.0679
4.2000,0.0000,0.0000,0.9506
4.2050,0.0000,0.0000,1.0948
4.2100,0.0000,0.0000,1.1929
4.2150,0.0000,0.0000,1.0975
4.2200,0.0000,0.0000,1.1359
4.2250,0.0000,0.0000,1.1073
4.2300,0.0000,0.0000,1.0534
4.2350,0.0000,0.0000,1.2656
4.2400,0.0000,0.0000,0.9684
4.2450,0.0000,0.0000,1.0953
4.2500,0.0000,0.0000,1.1717
4.2550,0.0000,0.0000,1.0840
4.2600,0.0000,0.0000,0.9240
4.2650,0.0000,0.0000,0.9199
4.2700,0.0000,0.0000,1.2351
4.2750,0.0000,0.0000,0.9350
4.2800,0.0000,0.0000,1.0499
4.2850,0.0000,0.0000,1.1136
4.2900,0.0000,0.0000,1.0597
4.2950,0.0000,0.0000,0.8370
4.3000,0.0000,0.0000,0.8225
4.3050,0.0000,0.0000,1.0358
4.3100,0.0000,0.0000,0.9561
4.3150,0.0000,0.0000,1.0170
4.3200,0.0000,0.0000,1.0588
4.3250,0.0000,0.0000,1.0672
4.3300,0.0000,0.0000,0.8884
4.3350,0.0000,0.0000,0.8472
4.3400,0.0000,0.0000,1.1593
4.3450,0.0000,0.0000,0.9723
4.3500,0.0000,0.0000,0.9074
4.3550,0.0000,0.0000,0.8091
4.3600,0.0000,0.0000,1.1105
4.3650,0.0000,0.0000,0.8965
4.3700,0.0000,0.0000,0.9218
4.3750,0.0000,0.0000,1.1205
4.3800,0.0000,0.0000,1.0824
4.3850,0.0000,0.0000,1.1129
4.3900,0.0000,0.0000,0.8947
4.3950,0.0000,0.0000,0.7038
4.4000,0.0000,0.0000,0.9277
4.4050,0.0000,0.0000,1.0092
4.4100,0.0000,0.0000,0.9659
4.4150,0.0000,0.0000,1.1506
4.4200,0.0000,0.0000,1.0874
4.4250,0.0000,0.0000,0.9197
4.4300,0.0000,0.0000,1.1114
4.4350,0.0000,0.0000,1.0261
4.4400,0.0000,0.0000,0.9857
4.4450,0.0000,0.0000,1.1771
4.4500,0.0000,0.0000,0.8438
4.4550,0.0000,0.0000,1.1659
4.4600,0.0000,0.0000,1.1727
4.4650,0.0000,0.0000,0.7969
4.4700,0.0000,0.0000,1.0193
4.4750,0.0000,0.0000,1.0224
4.4800,0.0000,0.0000,0.9062
4.4850,0.0000,0.0000,0.9729
4.4900,0.0000,0.0000,0.9441
4.4950,0.0000,0.0000,1.0483
4.5000,0.0000,0.0000,0.9737
4.5050,0.0000,0.0000,0.7844
4.5100,0.0000,0.0000,1.1826
4.5150,0.0000,0.0000,1.1467
4.5200,0.0000,0.0000,0.9397
4.5250,0.0000,0.0000,1.1434
4.5300,0.0000,0.0000,1.2804
4.5350,0.0000,0.0000,0.8526
4.5400,0.0000,0.0000,0.9891
4.5450,0.0000,0.0000,0.9758
4.5500,0.0000,0.0000,1.1041
4.5550,0.0000,0.0000,1.0009
4.5600,0.0000,0.0000,0.8695
4.5650,0.0000,0.0000,1.1873
4.5700,0.0000,0.0000,0.9977
4.5750,0.0000,0.0000,1.1232
4.5800,0.0000,0.0000,1.3094
4.5850,0.0000,0.0000,0.9461
4.5900,0.0000,0.0000,0.9857
4.5950,0.0000,0.0000,1.1438
4.6000,0.0000,0.0000,1.0215
4.6050,0.0000,0.0000,1.0963
4.6100,0.0000,0.0000,1.0331
4.6150,0.0000,0.0000,1.3692
4.6200,0.0000,0.0000,1.1090
4.6250,0.0000,0.0000,1.0739
4.6300,0.0000,0.0000,1.0472
4.6350,0.0000,0.0000,1.0782
4.6400,0.0000,0.0000,0.8363
4.6450,0.0000,0.0000,0.9985
4.6500,0.0000,0.0000,1.1199
4.6550,0.0000,0.0000,0.8862
4.6600,0.0000,0.0000,1.0350
4.6650,0.0000,0.0000,1.0182
4.6700,0.0000,0.0000,0.9677
4.6750,0.0000,0.0000,1.3284
4.6800,0.0000,0.0000,1.1142
4.6850,0.0000,0.0000,1.0680
4.6900,0.0000,0.0000,0.9334
4.6950,0.0000,0.0000,1.0374
4.7000,0.0000,0.0000,0.9911
4.7050,0.0000,0.0000,1.0157
4.7100,0.0000,0.0000,1.0526
4.7150,0.0000,0.0000,1.3261
4.7200,0.0000,0.0000,1.1860
4.7250,0.0000,0.0000,1.2299
4.7300,0.0000,0.0000,1.1894
4.7350,0.0000,0.0000,1.3630
4.7400,0.0000,0.0000,0.9445
4.7450,0.0000,0.0000,0.8690
4.7500,0.0000,0.0000,1.0479
4.7550,0.0000,0.0000,1.0536
4.7600,0.0000,0.0000,1.0263
4.7650,0.0000,0.0000,0.9469
4.7700,0.0000,0.0000,1.1037
4.7750,0.0000,0.0000,1.2279
4.7800,0.0000,0.0000,1.0470
4.7850,0.0000,0.0000,0.9928
4.7900,0.0000,0.0000,1.1632
4.7950,0.0000,0.0000,0.9826
4.8000,0.0000,0.0000,0.9762
4.8050,0.0000,0.0000,1.0564
4.8100,0.0000,0.0000,0.7440
4.8150,0.0000,0.0000,1.2438
4.8200,0.0000,0.0000,1.0044
4.8250,0.0000,0.0000,1.0787
4.8300,0.0000,0.0000,1.0540
4.8350,0.0000,0.0000,1.0648
4.8400,0.0000,0.0000,0.8550
4.8450,0.0000,0.0000,1.2275
4.8500,0.0000,0.0000,1.0833
4.8550,0.0000,0.0000,1.0499
4.8600,0.0000,0.0000,1.3916
4.8650,0.0000,0.0000,0.8608
4.8700,0.0000,0.0000,1.1016
4.8750,0.0000,0.0000,1.0003
4.8800,0.0000,0.0000,0.8316
4.8850,0.0000,0.0000,1.2442
4.8900,0.0000,0.0000,0.8240
4.8950,0.0000,0.0000,1.0273
4.9000,0.0000,0.0000,0.9997
4.9050,0.0000,0.0000,1.0319
4.9100,0.0000,0.0000,0.8960
4.9150,0.0000,0.0000,1.1725
4.9200,0.0000,0.0000,1.0385
4.9250,0.0000,0.0000,0.8545
4.9300,0.0000,0.0000,0.8612
4.9350,0.0000,0.0000,1.0395
4.9400,0.0000,0.0000,2.6387
4.9450,0.0000,0.0000,2.8296
4.9500,0.0000,0.0000,2.8165
4.9550,0.0000,0.0000,2.7064
4.9600,0.0000,0.0000,2.5443
4.9650,0.0000,0.0000,2.6194
4.9700,0.0000,0.0000,2.8184
4.9750,0.0000,0.0000,2.7126
4.9800,0.0000,0.0000,2.9974
4.9850,0.0000,0.0000,2.7209
4.9900,0.0000,0.0000,2.8193
4.9950,0.0000,0.0000,2.8544
5.0000,0.0000,0.0000,0.1126
5.0050,0.0000,0.0000,0.0558
5.0100,0.0000,0.0000,0.0773
5.0150,0.0000,0.0000,0.0238
5.0200,0.0000,0.0000,0.0876
5.0250,0.0000,0.0000,0.0303
5.0300,0.0000,0.0000,0.0046
5.0350,0.0000,0.0000,0.0528
5.0400,0.0000,0.0000,0.0635
5.0450,0.0000,0.0000,0.0152
5.0500,0.0000,0.0000,0.0482
5.0550,0.0000,0.0000,0.0133
5.0600,0.0000,0.0000,0.0204
5.0650,0.0000,0.0000,0.0015
5.0700,0.0000,0.0000,0.0721
5.0750,0.0000,0.0000,0.0769
5.0800,0.0000,0.0000,0.0205
5.0850,0.0000,0.0000,0.0241
5.0900,0.0000,0.0000,0.0458
5.0950,0.0000,0.0000,0.0977
5.1000,0.0000,0.0000,0.0146
5.1050,0.0000,0.0000,0.0423
5.1100,0.0000,0.0000,0.0376
5.1150,0.0000,0.0000,0.0144
5.1200,0.0000,0.0000,0.0403
5.1250,0.0000,0.0000,0.0761
5.1300,0.0000,0.0000,0.0701
5.1350,0.0000,0.0000,0.0676
5.1400,0.0000,0.0000,0.0338
5.1450,0.0000,0.0000,0.0014
5.1500,0.0000,0.0000,0.0107
5.1550,0.0000,0.0000,0.0221
5.1600,0.0000,0.0000,0.0045
5.1650,0.0000,0.0000,0.0156
5.1700,0.0000,0.0000,0.0571
5.1750,0.0000,0.0000,0.0606
5.1800,0.0000,0.0000,0.0288
5.1850,0.0000,0.0000,0.0415
5.1900,0.0000,0.0000,0.0483
5.1950,0.0000,0.0000,0.0769
5.2000,0.0000,0.0000,0.0314
5.2050,0.0000,0.0000,0.0146
5.2100,0.0000,0.0000,0.0491
5.2150,0.0000,0.0000,0.0644
5.2200,0.0000,0.0000,0.0241
5.2250,0.0000,0.0000,0.0470
5.2300,0.0000,0.0000,0.0017
5.2350,0.0000,0.0000,0.0261
5.2400,0.0000,0.0000,0.0102
5.2450,0.0000,0.0000,0.0738
5.2500,0.0000,0.0000,0.0384
5.2550,0.0000,0.0000,0.0165
5.2600,0.0000,0.0000,0.0334
5.2650,0.0000,0.0000,0.0020
5.2700,0.0000,0.0000,0.0014
5.2750,0.0000,0.0000,0.0157
5.2800,0.0000,0.0000,0.0366
5.2850,0.0000,0.0000,0.0339
5.2900,0.0000,0.0000,0.0377
5.2950,0.0000,0.0000,0.0282
5.3000,0.0000,0.0000,0.1211
5.3050,0.0000,0.0000,0.0467
5.3100,0.0000,0.0000,0.0902
5.3150,0.0000,0.0000,0.0099
5.3200,0.0000,0.0000,0.0929
5.3250,0.0000,0.0000,0.0086
5.3300,0.0000,0.0000,0.0430
5.3350,0.0000,0.0000,0.0101
5.3400,0.0000,0.0000,0.0353
5.3450,0.0000,0.0000,0.0217
5.3500,0.0000,0.0000,0.0066
5.3550,0.0000,0.0000,0.0372
5.3600,0.0000,0.0000,0.0659
5.3650,0.0000,0.0000,0.0977
5.3700,0.0000,0.0000,0.0406
5.3750,0.0000,0.0000,0.0622
5.3800,0.0000,0.0000,0.0105
5.3850,0.0000,0.0000,0.0031
5.3900,0.0000,0.0000,0.0492
5.3950,0.0000,0.0000,0.0297
5.4000,0.0000,0.0000,0.0121
5.4050,0.0000,0.0000,0.0171
5.4100,0.0000,0.0000,0.0436
5.4150,0.0000,0.0000,0.0313
5.4200,0.0000,0.0000,0.0206
5.4250,0.0000,0.0000,0.0703
5.4300,0.0000,0.0000,0.0175
5.4350,0.0000,0.0000,0.0530
5.4400,0.0000,0.0000,0.0949
5.4450,0.0000,0.0000,0.0251
5.4500,0.0000,0.0000,0.0220
5.4550,0.0000,0.0000,0.0155
5.4600,0.0000,0.0000,0.0915
5.4650,0.0000,0.0000,0.0849
5.4700,0.0000,0.0000,0.0207
5.4750,0.0000,0.0000,0.0167
5.4800,0.0000,0.0000,0.0718
5.4850,0.0000,0.0000,0.0162
5.4900,0.0000,0.0000,0.0417
5.4950,0.0000,0.0000,0.0259
5.5000,0.0000,0.0000,0.0844
5.5050,0.0000,0.0000,0.0023
5.5100,0.0000,0.0000,0.0095
5.5150,0.0000,0.0000,0.0610
5.5200,0.0000,0.0000,0.0772
5.5250,0.0000,0.0000,0.0193
5.5300,0.0000,0.0000,0.0356
5.5350,0.0000,0.0000,0.0201
5.5400,0.0000,0.0000,0.0985
5.5450,0.0000,0.0000,0.0425
5.5500,0.0000,0.0000,0.0057
5.5550,0.0000,0.0000,0.0540
5.5600,0.0000,0.0000,0.0325
5.5650,0.0000,0.0000,0.0878
5.5700,0.0000,0.0000,0.0493
5.5750,0.0000,0.0000,0.1271
5.5800,0.0000,0.0000,0.0963
5.5850,0.0000,0.0000,0.1402
5.5900,0.0000,0.0000,0.0043
5.5950,0.0000,0.0000,0.0469
5.6000,0.0000,0.0000,5.0252
5.6050,0.0000,0.0000,5.8285
5.6100,0.0000,0.0000,5.1899
5.6150,0.0000,0.0000,5.1098
5.6200,0.0000,0.0000,5.5012
5.6250,0.0000,0.0000,4.2443
5.6300,0.0000,0.0000,0.9892
5.6350,0.0000,0.0000,1.0677
5.6400,0.0000,0.0000,1.0993
5.6450,0.0000,0.0000,1.0438
5.6500,0.0000,0.0000,1.2297
5.6550,0.0000,0.0000,0.9994
5.6600,0.0000,0.0000,0.7976
5.6650,0.0000,0.0000,0.9292
5.6700,0.0000,0.0000,1.0274
5.6750,0.0000,0.0000,0.9968
5.6800,0.0000,0.0000,0.7198
5.6850,0.0000,0.0000,0.9981
5.6900,0.0000,0.0000,0.8565
5.6950,0.0000,0.0000,0.9278
5.7000,0.0000,0.0000,1.1271
5.7050,0.0000,0.0000,0.9316
5.7100,0.0000,0.0000,0.8719
5.7150,0.0000,0.0000,0.9369
5.7200,0.0000,0.0000,0.8738
5.7250,0.0000,0.0000,1.1966
5.7300,0.0000,0.0000,1.0501
5.7350,0.0000,0.0000,1.0604
5.7400,0.0000,0.0000,0.8689
5.7450,0.0000,0.0000,0.8738
5.7500,0.0000,0.0000,0.9815
5.7550,0.0000,0.0000,0.6890
5.7600,0.0000,0.0000,1.0733
5.7650,0.0000,0.0000,0.7972
5.7700,0.0000,0.0000,0.9625
5.7750,0.0000,0.0000,0.9907
5.7800,0.0000,0.0000,0.8556
5.7850,0.0000,0.0000,0.9927
5.7900,0.0000,0.0000,1.0341
5.7950,0.0000,0.0000,1.1782
5.8000,0.0000,0.0000,0.9973
5.8050,0.0000,0.0000,1.1682
5.8100,0.0000,0.0000,1.0061
5.8150,0.0000,0.0000,0.9269
5.8200,0.0000,0.0000,1.0534
5.8250,0.0000,0.0000,0.8876
5.8300,0.0000,0.0000,0.9683
5.8350,0.0000,0.0000,1.0249
5.8400,0.0000,0.0000,1.0871
5.8450,0.0000,0.0000,0.9831
5.8500,0.0000,0.0000,0.7749
5.8550,0.0000,0.0000,1.1058
5.8600,0.0000,0.0000,0.9705
5.8650,0.0000,0.0000,0.9144
5.8700,0.0000,0.0000,0.8531
5.8750,0.0000,0.0000,1.0194
5.8800,0.0000,0.0000,0.9902
5.8850,0.0000,0.0000,1.0321
5.8900,0.0000,0.0000,0.9348
5.8950,0.0000,0.0000,1.1344
5.9000,0.0000,0.0000,0.9191
5.9050,0.0000,0.0000,0.9996
5.9100,0.0000,0.0000,0.9745
5.9150,0.0000,0.0000,1.0780
5.9200,0.0000,0.0000,0.8680
5.9250,0.0000,0.0000,0.9151
5.9300,0.0000,0.0000,0.9248
5.9350,0.0000,0.0000,0.8715
5.9400,0.0000,0.0000,0.8725
5.9450,0.0000,0.0000,0.8065
5.9500,0.0000,0.0000,1.0412
5.9550,0.0000,0.0000,1.1300
5.9600,0.0000,0.0000,0.8338
5.9650,0.0000,0.0000,1.0437
5.9700,0.0000,0.0000,0.8137
5.9750,0.0000,0.0000,0.8545
5.9800,0.0000,0.0000,0.9138
5.9850,0.0000,0.0000,0.9665
5.9900,0.0000,0.0000,1.0065
5.9950,0.0000,0.0000,0.7208
6.0000,0.0000,0.0000,0.7949
6.0050,0.0000,0.0000,0.9623
6.0100,0.0000,0.0000,0.9230
6.0150,0.0000,0.0000,1.2080
6.0200,0.0000,0.0000,0.9196
6.0250,0.0000,0.0000,0.8751
6.0300,0.0000,0.0000,1.0978
6.0350,0.0000,0.0000,0.6337
6.0400,0.0000,0.0000,0.7299
6.0450,0.0000,0.0000,1.2791
6.0500,0.0000,0.0000,0.8792
6.0550,0.0000,0.0000,0.9623
6.0600,0.0000,0.0000,0.9319
6.0650,0.0000,0.0000,0.8479
6.0700,0.0000,0.0000,0.9373
6.0750,0.0000,0.0000,0.7973
6.0800,0.0000,0.0000,1.0700
6.0850,0.0000,0.0000,1.0476
6.0900,0.0000,0.0000,1.0367
6.0950,0.0000,0.0000,0.8457
6.1000,0.0000,0.0000,0.7241
6.1050,0.0000,0.0000,0.8979
6.1100,0.0000,0.0000,0.8246
6.1150,0.0000,0.0000,1.0029
6.1200,0.0000,0.0000,0.7631
6.1250,0.0000,0.0000,0.8462
6.1300,0.0000,0.0000,0.9731
6.1350,0.0000,0.0000,1.0088
6.1400,0.0000,0.0000,0.9688
6.1450,0.0000,0.0000,0.8066
6.1500,0.0000,0.0000,0.8762
6.1550,0.0000,0.0000,1.1984
6.1600,0.0000,0.0000,1.0713
6.1650,0.0000,0.0000,0.8601
6.1700,0.0000,0.0000,1.1873
6.1750,0.0000,0.0000,0.9434
6.1800,0.0000,0.0000,0.9591
6.1850,0.0000,0.0000,0.8610
6.1900,0.0000,0.0000,1.1413
6.1950,0.0000,0.0000,0.9735
6.2000,0.0000,0.0000,0.9511
6.2050,0.0000,0.0000,0.8507
6.2100,0.0000,0.0000,0.8082
6.2150,0.0000,0.0000,0.9831
6.2200,0.0000,0.0000,0.9629
6.2250,0.0000,0.0000,1.1486
6.2300,0.0000,0.0000,0.8539
6.2350,0.0000,0.0000,0.9183
6.2400,0.0000,0.0000,1.0817
6.2450,0.0000,0.0000,1.0612
6.2500,0.0000,0.0000,0.8829
6.2550,0.0000,0.0000,1.1396
6.2600,0.0000,0.0000,1.0215
6.2650,0.0000,0.0000,1.0719
6.2700,0.0000,0.0000,1.0068
6.2750,0.0000,0.0000,1.0823
6.2800,0.0000,0.0000,0.9161
6.2850,0.0000,0.0000,0.9407
6.2900,0.0000,0.0000,1.0970
6.2950,0.0000,0.0000,1.0142
6.3000,0.0000,0.0000,1.0108
6.3050,0.0000,0.0000,1.1043
6.3100,0.0000,0.0000,0.9964
6.3150,0.0000,0.0000,1.0172
6.3200,0.0000,0.0000,0.7053
6.3250,0.0000,0.0000,0.9065
6.3300,0.0000,0.0000,1.0683
6.3350,0.0000,0.0000,0.8645
6.3400,0.0000,0.0000,0.9357
6.3450,0.0000,0.0000,0.9982
6.3500,0.0000,0.0000,0.9547
6.3550,0.0000,0.0000,1.0751
6.3600,0.0000,0.0000,1.0286
6.3650,0.0000,0.0000,0.9516
6.3700,0.0000,0.0000,1.1028
6.3750,0.0000,0.0000,0.9300
6.3800,0.0000,0.0000,0.8886
6.3850,0.0000,0.0000,1.0124
6.3900,0.0000,0.0000,1.0500
6.3950,0.0000,0.0000,0.9575
6.4000,0.0000,0.0000,0.8466
6.4050,0.0000,0.0000,0.9141
6.4100,0.0000,0.0000,1.0033
6.4150,0.0000,0.0000,1.0581
6.4200,0.0000,0.0000,1.1890
6.4250,0.0000,0.0000,0.9586
6.4300,0.0000,0.0000,0.9515
6.4350,0.0000,0.0000,0.7211
6.4400,0.0000,0.0000,1.1317
6.4450,0.0000,0.0000,1.0883
6.4500,0.0000,0.0000,0.9804
6.4550,0.0000,0.0000,0.8948
6.4600,0.0000,0.0000,0.6678
6.4650,0.0000,0.0000,1.0681
6.4700,0.0000,0.0000,0.8875
6.4750,0.0000,0.0000,1.1625
6.4800,0.0000,0.0000,1.0731
6.4850,0.0000,0.0000,1.1366
6.4900,0.0000,0.0000,0.9662
6.4950,0.0000,0.0000,1.1261
6.5000,0.0000,0.0000,0.8159
6.5050,0.0000,0.0000,1.1593
6.5100,0.0000,0.0000,0.9809
6.5150,0.0000,0.0000,0.8438
6.5200,0.0000,0.0000,0.9376
6.5250,0.0000,0.0000,0.8698
6.5300,0.0000,0.0000,1.0182
6.5350,0.0000,0.0000,0.9005
6.5400,0.0000,0.0000,0.8350
6.5450,0.0000,0.0000,0.9450
6.5500,0.0000,0.0000,0.9608
6.5550,0.0000,0.0000,1.0135
6.5600,0.0000,0.0000,1.0727
6.5650,0.0000,0.0000,1.1409
6.5700,0.0000,0.0000,1.0396
6.5750,0.0000,0.0000,1.1877
6.5800,0.0000,0.0000,0.6951
6.5850,0.0000,0.0000,0.9832
6.5900,0.0000,0.0000,1.1044
6.5950,0.0000,0.0000,0.8352
6.6000,0.0000,0.0000,0.9688
6.6050,0.0000,0.0000,1.0199
6.6100,0.0000,0.0000,0.8085
6.6150,0.0000,0.0000,0.9259
6.6200,0.0000,0.0000,1.0666
6.6250,0.0000,0.0000,0.9576
6.6300,0.0000,0.0000,1.1797
6.6350,0.0000,0.0000,1.2795
6.6400,0.0000,0.0000,0.9883
6.6450,0.0000,0.0000,0.8601
6.6500,0.0000,0.0000,0.9935
6.6550,0.0000,0.0000,0.9308
6.6600,0.0000,0.0000,0.8278
6.6650,0.0000,0.0000,0.9511
6.6700,0.0000,0.0000,0.9438
6.6750,0.0000,0.0000,0.9576
6.6800,0.0000,0.0000,1.1110
6.6850,0.0000,0.0000,1.1290
6.6900,0.0000,0.0000,1.0511
6.6950,0.0000,0.0000,0.9592
6.7000,0.0000,0.0000,1.0530
6.7050,0.0000,0.0000,1.0058
6.7100,0.0000,0.0000,1.0303
6.7150,0.0000,0.0000,0.8880
6.7200,0.0000,0.0000,0.6357
6.7250,0.0000,0.0000,1.1108
6.7300,0.0000,0.0000,0.9341
6.7350,0.0000,0.0000,0.9461
6.7400,0.0000,0.0000,1.0046
6.7450,0.0000,0.0000,1.0002
6.7500,0.0000,0.0000,0.9712
6.7550,0.0000,0.0000,1.1905
6.7600,0.0000,0.0000,1.0235
6.7650,0.0000,0.0000,1.0364
6.7700,0.0000,0.0000,0.9034
6.7750,0.0000,0.0000,0.9979
6.7800,0.0000,0.0000,1.0652
6.7850,0.0000,0.0000,1.0011
6.7900,0.0000,0.0000,1.0498
6.7950,0.0000,0.0000,0.8993
6.8000,0.0000,0.0000,1.0569
6.8050,0.0000,0.0000,0.8905
6.8100,0.0000,0.0000,0.9604
6.8150,0.0000,0.0000,0.9211
6.8200,0.0000,0.0000,1.0352
6.8250,0.0000,0.0000,1.1447
6.8300,0.0000,0.0000,1.0494
6.8350,0.0000,0.0000,0.9106
6.8400,0.0000,0.0000,1.0317
6.8450,0.0000,0.0000,1.1399
6.8500,0.0000,0.0000,1.1031
6.8550,0.0000,0.0000,1.0766
6.8600,0.0000,0.0000,0.8826
6.8650,0.0000,0.0000,0.9517
6.8700,0.0000,0.0000,0.9374
6.8750,0.0000,0.0000,0.9621
6.8800,0.0000,0.0000,1.0470
6.8850,0.0000,0.0000,1.0243
6.8900,0.0000,0.0000,0.9783
6.8950,0.0000,0.0000,1.0881
6.9000,0.0000,0.0000,0.9358
6.9050,0.0000,0.0000,0.9821
6.9100,0.0000,0.0000,1.0343
6.9150,0.0000,0.0000,0.8603
6.9200,0.0000,0.0000,0.9205
6.9250,0.0000,0.0000,0.8566
6.9300,0.0000,0.0000,0.8984
6.9350,0.0000,0.0000,1.0071
6.9400,0.0000,0.0000,1.0091
6.9450,0.0000,0.0000,1.0654
6.9500,0.0000,0.0000,1.0644
6.9550,0.0000,0.0000,0.8900
6.9600,0.0000,0.0000,1.2484
6.9650,0.0000,0.0000,1.1875
6.9700,0.0000,0.0000,0.8811
6.9750,0.0000,0.0000,0.9448
6.9800,0.0000,0.0000,0.9701
6.9850,0.0000,0.0000,1.0517
6.9900,0.0000,0.0000,1.1014
6.9950,0.0000,0.0000,1.0288
7.0000,0.0000,0.0000,0.7232
7.0050,0.0000,0.0000,1.3717
7.0100,0.0000,0.0000,1.1318
7.0150,0.0000,0.0000,1.1285
7.0200,0.0000,0.0000,0.9411
7.0250,0.0000,0.0000,1.0428
7.0300,0.0000,0.0000,1.1421
7.0350,0.0000,0.0000,0.9754
7.0400,0.0000,0.0000,1.1679
7.0450,0.0000,0.0000,1.0426
7.0500,0.0000,0.0000,1.2214
7.0550,0.0000,0.0000,1.0390
7.0600,0.0000,0.0000,1.2111
7.0650,0.0000,0.0000,0.8429
7.0700,0.0000,0.0000,1.2063
7.0750,0.0000,0.0000,1.0882
7.0800,0.0000,0.0000,0.9894
7.0850,0.0000,0.0000,1.1633
7.0900,0.0000,0.0000,1.0039
7.0950,0.0000,0.0000,1.1334
7.1000,0.0000,0.0000,1.1495
7.1050,0.0000,0.0000,1.1614
7.1100,0.0000,0.0000,1.3000
7.1150,0.0000,0.0000,1.2010
7.1200,0.0000,0.0000,1.3356
7.1250,0.0000,0.0000,1.1222
7.1300,0.0000,0.0000,1.0563
7.1350,0.0000,0.0000,1.0854
7.1400,0.0000,0.0000,1.0341
7.1450,0.0000,0.0000,0.8917
7.1500,0.0000,0.0000,1.0565
7.1550,0.0000,0.0000,0.8978
7.1600,0.0000,0.0000,1.0061
7.1650,0.0000,0.0000,1.0039
7.1700,0.0000,0.0000,0.9744
7.1750,0.0000,0.0000,0.9132
7.1800,0.0000,0.0000,1.0542
7.1850,0.0000,0.0000,1.0383
7.1900,0.0000,0.0000,1.2056
7.1950,0.0000,0.0000,1.1170
7.2000,0.0000,0.0000,1.1545
7.2050,0.0000,0.0000,0.9863
7.2100,0.0000,0.0000,1.0053
7.2150,0.0000,0.0000,0.8937
7.2200,0.0000,0.0000,0.9392
7.2250,0.0000,0.0000,1.1285
7.2300,0.0000,0.0000,1.0203
7.2350,0.0000,0.0000,1.0266
7.2400,0.0000,0.0000,0.9769
7.2450,0.0000,0.0000,1.2289
7.2500,0.0000,0.0000,1.0376
7.2550,0.0000,0.0000,1.1804
7.2600,0.0000,0.0000,1.0402
7.2650,0.0000,0.0000,1.1580
7.2700,0.0000,0.0000,0.9295
7.2750,0.0000,0.0000,0.8850
7.2800,0.0000,0.0000,1.1774
7.2850,0.0000,0.0000,1.0093
7.2900,0.0000,0.0000,1.0779
7.2950,0.0000,0.0000,1.1503
7.3000,0.0000,0.0000,1.1294
7.3050,0.0000,0.0000,1.0786
7.3100,0.0000,0.0000,0.9046
7.3150,0.0000,0.0000,0.9634
7.3200,0.0000,0.0000,1.0512
7.3250,0.0000,0.0000,1.1232
7.3300,0.0000,0.0000,1.1089
7.3350,0.0000,0.0000,1.0911
7.3400,0.0000,0.0000,0.9556
7.3450,0.0000,0.0000,1.0471
7.3500,0.0000,0.0000,1.1633
7.3550,0.0000,0.0000,0.9448
7.3600,0.0000,0.0000,0.9799
7.3650,0.0000,0.0000,1.1559
7.3700,0.0000,0.0000,1.2374
7.3750,0.0000,0.0000,1.0971
7.3800,0.0000,0.0000,1.0495
7.3850,0.0000,0.0000,0.9347
7.3900,0.0000,0.0000,1.0342
7.3950,0.0000,0.0000,0.9544
7.4000,0.0000,0.0000,1.0656
7.4050,0.0000,0.0000,1.1340
7.4100,0.0000,0.0000,1.1031
7.4150,0.0000,0.0000,1.2040
7.4200,0.0000,0.0000,0.9280
7.4250,0.0000,0.0000,0.8987
7.4300,0.0000,0.0000,1.2122
7.4350,0.0000,0.0000,1.1738
7.4400,0.0000,0.0000,0.9337
7.4450,0.0000,0.0000,1.0657
7.4500,0.0000,0.0000,0.9220
7.4550,0.0000,0.0000,1.0474
7.4600,0.0000,0.0000,1.0870
7.4650,0.0000,0.0000,1.1643
7.4700,0.0000,0.0000,0.9344
7.4750,0.0000,0.0000,0.8989
7.4800,0.0000,0.0000,1.1179
7.4850,0.0000,0.0000,1.0098
7.4900,0.0000,0.0000,1.2168
7.4950,0.0000,0.0000,0.9137
7.5000,0.0000,0.0000,0.9728
7.5050,0.0000,0.0000,0.7244
7.5100,0.0000,0.0000,1.1845
7.5150,0.0000,0.0000,1.2083
7.5200,0.0000,0.0000,1.0994
7.5250,0.0000,0.0000,1.0138
7.5300,0.0000,0.0000,0.8090
7.5350,0.0000,0.0000,0.8869
7.5400,0.0000,0.0000,0.9869
7.5450,0.0000,0.0000,1.2772
7.5500,0.0000,0.0000,1.1564
7.5550,0.0000,0.0000,0.9785
7.5600,0.0000,0.0000,1.1008
7.5650,0.0000,0.0000,1.1158
7.5700,0.0000,0.0000,1.1100
7.5750,0.0000,0.0000,0.9393
7.5800,0.0000,0.0000,0.9974
7.5850,0.0000,0.0000,1.1683
7.5900,0.0000,0.0000,1.1320
7.5950,0.0000,0.0000,1.0091
7.6000,0.0000,0.0000,1.3401
7.6050,0.0000,0.0000,1.0826
7.6100,0.0000,0.0000,1.0006
7.6150,0.0000,0.0000,1.1569
7.6200,0.0000,0.0000,1.1453
7.6250,0.0000,0.0000,1.0339
7.6300,0.0000,0.0000,1.2639
7.6350,0.0000,0.0000,1.1771
7.6400,0.0000,0.0000,1.0515
7.6450,0.0000,0.0000,1.1330
7.6500,0.0000,0.0000,1.1281
7.6550,0.0000,0.0000,1.0148
7.6600,0.0000,0.0000,1.1356
7.6650,0.0000,0.0000,0.9847
7.6700,0.0000,0.0000,1.0200
7.6750,0.0000,0.0000,1.1263
7.6800,0.0000,0.0000,0.8988
7.6850,0.0000,0.0000,1.0066
7.6900,0.0000,0.0000,0.9322
7.6950,0.0000,0.0000,1.1318
7.7000,0.0000,0.0000,0.9784
7.7050,0.0000,0.0000,1.2648
7.7100,0.0000,0.0000,1.2298
7.7150,0.0000,0.0000,0.9649
7.7200,0.0000,0.0000,1.0653
7.7250,0.0000,0.0000,1.0040
7.7300,0.0000,0.0000,1.0452
7.7350,0.0000,0.0000,1.1262
7.7400,0.0000,0.0000,1.2226
7.7450,0.0000,0.0000,1.3055
7.7500,0.0000,0.0000,1.2647
7.7550,0.0000,0.0000,0.8952
7.7600,0.0000,0.0000,0.9883
7.7650,0.0000,0.0000,1.0227
7.7700,0.0000,0.0000,1.0071
7.7750,0.0000,0.0000,1.0615
7.7800,0.0000,0.0000,1.1210
7.7850,0.0000,0.0000,0.9898
7.7900,0.0000,0.0000,0.9739
7.7950,0.0000,0.0000,1.3239
7.8000,0.0000,0.0000,1.1253
7.8050,0.0000,0.0000,1.3004
7.8100,0.0000,0.0000,0.9752
7.8150,0.0000,0.0000,1.2059
7.8200,0.0000,0.0000,1.2422
7.8250,0.0000,0.0000,1.2003
7.8300,0.0000,0.0000,0.9519
7.8350,0.0000,0.0000,1.1060
7.8400,0.0000,0.0000,0.9491
7.8450,0.0000,0.0000,0.9070
7.8500,0.0000,0.0000,1.0391
7.8550,0.0000,0.0000,1.1010
7.8600,0.0000,0.0000,1.0151
7.8650,0.0000,0.0000,1.0264
7.8700,0.0000,0.0000,1.1145
7.8750,0.0000,0.0000,0.9584
7.8800,0.0000,0.0000,1.0895
7.8850,0.0000,0.0000,1.1310
7.8900,0.0000,0.0000,1.1162
7.8950,0.0000,0.0000,1.1054
7.9000,0.0000,0.0000,0.9183
7.9050,0.0000,0.0000,1.0032
7.9100,0.0000,0.0000,0.9856
7.9150,0.0000,0.0000,1.1213
7.9200,0.0000,0.0000,0.8275
7.9250,0.0000,0.0000,1.0524
7.9300,0.0000,0.0000,0.8449
7.9350,0.0000,0.0000,1.1123
7.9400,0.0000,0.0000,0.9734
7.9450,0.0000,0.0000,1.0400
7.9500,0.0000,0.0000,1.1449
7.9550,0.0000,0.0000,1.2369
7.9600,0.0000,0.0000,0.9155
7.9650,0.0000,0.0000,1.0473
7.9700,0.0000,0.0000,0.8005
7.9750,0.0000,0.0000,1.0085
7.9800,0.0000,0.0000,0.9503
7.9850,0.0000,0.0000,1.1107
7.9900,0.0000,0.0000,1.0184
7.9950,0.0000,0.0000,1.0430
8.0000,0.0000,0.0000,0.8977
8.0050,0.0000,0.0000,0.9909
8.0100,0.0000,0.0000,0.8971
8.0150,0.0000,0.0000,1.0317
8.0200,0.0000,0.0000,0.8404
8.0250,0.0000,0.0000,1.0602
8.0300,0.0000,0.0000,1.1593
8.0350,0.0000,0.0000,1.3385
8.0400,0.0000,0.0000,1.2072
8.0450,0.0000,0.0000,1.1847
8.0500,0.0000,0.0000,1.1224
8.0550,0.0000,0.0000,1.2155
8.0600,0.0000,0.0000,1.0214
8.0650,0.0000,0.0000,1.0726
8.0700,0.0000,0.0000,0.8019
8.0750,0.0000,0.0000,0.9654
8.0800,0.0000,0.0000,1.1617
8.0850,0.0000,0.0000,0.8198
8.0900,0.0000,0.0000,1.0615
8.0950,0.0000,0.0000,1.0167
8.1000,0.0000,0.0000,0.9799
8.1050,0.0000,0.0000,1.0602
8.1100,0.0000,0.0000,1.0247
8.1150,0.0000,0.0000,0.8886
8.1200,0.0000,0.0000,1.0116
8.1250,0.0000,0.0000,0.8054
8.1300,0.0000,0.0000,1.1991
8.1350,0.0000,0.0000,1.0171
8.1400,0.0000,0.0000,1.1250
8.1450,0.0000,0.0000,0.9105
8.1500,0.0000,0.0000,1.2379
8.1550,0.0000,0.0000,1.1392
8.1600,0.0000,0.0000,1.0588
8.1650,0.0000,0.0000,1.0431
8.1700,0.0000,0.0000,1.0622
8.1750,0.0000,0.0000,0.9295
8.1800,0.0000,0.0000,0.9991
8.1850,0.0000,0.0000,0.9892
8.1900,0.0000,0.0000,1.0598
8.1950,0.0000,0.0000,1.1975
8.2000,0.0000,0.0000,1.1519
8.2050,0.0000,0.0000,1.0456
8.2100,0.0000,0.0000,1.0885
8.2150,0.0000,0.0000,0.9792
8.2200,0.0000,0.0000,0.9551
8.2250,0.0000,0.0000,0.8200
8.2300,0.0000,0.0000,0.8605
8.2350,0.0000,0.0000,0.8692
8.2400,0.0000,0.0000,1.0022
8.2450,0.0000,0.0000,0.9890
8.2500,0.0000,0.0000,1.0610
8.2550,0.0000,0.0000,1.1463
8.2600,0.0000,0.0000,1.0893
8.2650,0.0000,0.0000,0.9906
8.2700,0.0000,0.0000,0.9522
8.2750,0.0000,0.0000,0.9728
8.2800,0.0000,0.0000,1.0795
8.2850,0.0000,0.0000,0.8977
8.2900,0.0000,0.0000,0.8272
8.2950,0.0000,0.0000,0.9790
8.3000,0.0000,0.0000,1.1299
8.3050,0.0000,0.0000,1.1493
8.3100,0.0000,0.0000,1.0755
8.3150,0.0000,0.0000,0.7755
8.3200,0.0000,0.0000,0.9841
8.3250,0.0000,0.0000,1.0868
8.3300,0.0000,0.0000,1.1313
8.3350,0.0000,0.0000,1.2212
8.3400,0.0000,0.0000,0.8890
8.3450,0.0000,0.0000,1.0442
8.3500,0.0000,0.0000,0.8141
8.3550,0.0000,0.0000,0.9741
8.3600,0.0000,0.0000,0.9524
8.3650,0.0000,0.0000,1.0959
8.3700,0.0000,0.0000,1.0177
8.3750,0.0000,0.0000,0.7894
8.3800,0.0000,0.0000,0.9822
8.3850,0.0000,0.0000,1.0401
8.3900,0.0000,0.0000,1.1693
8.3950,0.0000,0.0000,0.9094
8.4000,0.0000,0.0000,0.8923
8.4050,0.0000,0.0000,0.9251
8.4100,0.0000,0.0000,1.1159
8.4150,0.0000,0.0000,0.9597
8.4200,0.0000,0.0000,1.0034
8.4250,0.0000,0.0000,1.0454
8.4300,0.0000,0.0000,0.8945
8.4350,0.0000,0.0000,1.1214
8.4400,0.0000,0.0000,0.7982
8.4450,0.0000,0.0000,1.2084
8.4500,0.0000,0.0000,0.9109
8.4550,0.0000,0.0000,0.8812
8.4600,0.0000,0.0000,0.9012
8.4650,0.0000,0.0000,0.8501
8.4700,0.0000,0.0000,0.8835
8.4750,0.0000,0.0000,0.8923
8.4800,0.0000,0.0000,0.8483
8.4850,0.0000,0.0000,0.9658
8.4900,0.0000,0.0000,1.0238
8.4950,0.0000,0.0000,0.9167
8.5000,0.0000,0.0000,1.0069
8.5050,0.0000,0.0000,0.8856
8.5100,0.0000,0.0000,1.0108
8.5150,0.0000,0.0000,0.9453
8.5200,0.0000,0.0000,0.8535
8.5250,0.0000,0.0000,0.9945
8.5300,0.0000,0.0000,0.9626
8.5350,0.0000,0.0000,0.9031
8.5400,0.0000,0.0000,0.9760
8.5450,0.0000,0.0000,1.0445
8.5500,0.0000,0.0000,0.8344
8.5550,0.0000,0.0000,0.9205
8.5600,0.0000,0.0000,1.0544
8.5650,0.0000,0.0000,0.9791
8.5700,0.0000,0.0000,1.0722
8.5750,0.0000,0.0000,1.2643
8.5800,0.0000,0.0000,0.8288
8.5850,0.0000,0.0000,1.0204
8.5900,0.0000,0.0000,0.9333
8.5950,0.0000,0.0000,1.1471
8.6000,0.0000,0.0000,1.0449
8.6050,0.0000,0.0000,0.8103
8.6100,0.0000,0.0000,1.1042
8.6150,0.0000,0.0000,0.9759
8.6200,0.0000,0.0000,0.9381
8.6250,0.0000,0.0000,0.9764
8.6300,0.0000,0.0000,0.9996
8.6350,0.0000,0.0000,0.8712
8.6400,0.0000,0.0000,0.9274
8.6450,0.0000,0.0000,1.1342
8.6500,0.0000,0.0000,0.8508
8.6550,0.0000,0.0000,0.9001
8.6600,0.0000,0.0000,1.0632
8.6650,0.0000,0.0000,0.8585
8.6700,0.0000,0.0000,0.9462
8.6750,0.0000,0.0000,1.0065
8.6800,0.0000,0.0000,0.8618
8.6850,0.0000,0.0000,0.9320
8.6900,0.0000,0.0000,0.8609
8.6950,0.0000,0.0000,0.9432
8.7000,0.0000,0.0000,1.0014
8.7050,0.0000,0.0000,0.9692
8.7100,0.0000,0.0000,0.9966
8.7150,0.0000,0.0000,1.0117
8.7200,0.0000,0.0000,1.0608
8.7250,0.0000,0.0000,0.8392
8.7300,0.0000,0.0000,0.9796
8.7350,0.0000,0.0000,1.1542
8.7400,0.0000,0.0000,0.9368
8.7450,0.0000,0.0000,0.9329
8.7500,0.0000,0.0000,0.9653
8.7550,0.0000,0.0000,0.8778
8.7600,0.0000,0.0000,1.0304
8.7650,0.0000,0.0000,0.9625
8.7700,0.0000,0.0000,0.9431
8.7750,0.0000,0.0000,1.0516
8.7800,0.0000,0.0000,1.1064
8.7850,0.0000,0.0000,0.7935
8.7900,0.0000,0.0000,0.9022
8.7950,0.0000,0.0000,0.9292
8.8000,0.0000,0.0000,0.7932
8.8050,0.0000,0.0000,1.0421
8.8100,0.0000,0.0000,1.2135
8.8150,0.0000,0.0000,1.0568
8.8200,0.0000,0.0000,1.1113
8.8250,0.0000,0.0000,0.7266
8.8300,0.0000,0.0000,0.9069
8.8350,0.0000,0.0000,0.8017
8.8400,0.0000,0.0000,1.0526
8.8450,0.0000,0.0000,0.9442
8.8500,0.0000,0.0000,0.9376
8.8550,0.0000,0.0000,1.0162
8.8600,0.0000,0.0000,1.0491
8.8650,0.0000,0.0000,1.1524
8.8700,0.0000,0.0000,1.1213
8.8750,0.0000,0.0000,1.0690
8.8800,0.0000,0.0000,0.7616
8.8850,0.0000,0.0000,1.1061
8.8900,0.0000,0.0000,0.9677
8.8950,0.0000,0.0000,0.7739
8.9000,0.0000,0.0000,0.9761
8.9050,0.0000,0.0000,0.9267
8.9100,0.0000,0.0000,0.9446
8.9150,0.0000,0.0000,1.0701
8.9200,0.0000,0.0000,0.7939
8.9250,0.0000,0.0000,1.0319
8.9300,0.0000,0.0000,1.0978
8.9350,0.0000,0.0000,0.8191
8.9400,0.0000,0.0000,1.1214
8.9450,0.0000,0.0000,0.8741
8.9500,0.0000,0.0000,0.8655
8.9550,0.0000,0.0000,1.0660
8.9600,0.0000,0.0000,0.9517
8.9650,0.0000,0.0000,0.7332
8.9700,0.0000,0.0000,0.8765
8.9750,0.0000,0.0000,1.0352
8.9800,0.0000,0.0000,0.8881
8.9850,0.0000,0.0000,0.8960
8.9900,0.0000,0.0000,0.9538
8.9950,0.0000,0.0000,0.9516
9.0000,0.0000,0.0000,0.8702
9.0050,0.0000,0.0000,0.8410
9.0100,0.0000,0.0000,1.0050
9.0150,0.0000,0.0000,1.0988
9.0200,0.0000,0.0000,0.6489
9.0250,0.0000,0.0000,1.0014
9.0300,0.0000,0.0000,1.0710
9.0350,0.0000,0.0000,0.8458
9.0400,0.0000,0.0000,1.1234
9.0450,0.0000,0.0000,0.7714
9.0500,0.0000,0.0000,1.0655
9.0550,0.0000,0.0000,1.1448
9.0600,0.0000,0.0000,1.1349
9.0650,0.0000,0.0000,0.6326
9.0700,0.0000,0.0000,0.9581
9.0750,0.0000,0.0000,0.8312
9.0800,0.0000,0.0000,0.9979
9.0850,0.0000,0.0000,1.1186
9.0900,0.0000,0.0000,0.9999
9.0950,0.0000,0.0000,1.1463
9.1000,0.0000,0.0000,0.7501
9.1050,0.0000,0.0000,0.8493
9.1100,0.0000,0.0000,0.8870
9.1150,0.0000,0.0000,1.0302
9.1200,0.0000,0.0000,1.0961
9.1250,0.0000,0.0000,0.8502
9.1300,0.0000,0.0000,0.8391
9.1350,0.0000,0.0000,1.0567
9.1400,0.0000,0.0000,0.7918
9.1450,0.0000,0.0000,1.0179
9.1500,0.0000,0.0000,0.8522
9.1550,0.0000,0.0000,0.9397
9.1600,0.0000,0.0000,1.1977
9.1650,0.0000,0.0000,0.9182
9.1700,0.0000,0.0000,0.9553
9.1750,0.0000,0.0000,0.8532
9.1800,0.0000,0.0000,1.0168
9.1850,0.0000,0.0000,1.1327
9.1900,0.0000,0.0000,1.0267
9.1950,0.0000,0.0000,0.7933
9.2000,0.0000,0.0000,0.9937
9.2050,0.0000,0.0000,1.1367
9.2100,0.0000,0.0000,0.8354
9.2150,0.0000,0.0000,0.9333
9.2200,0.0000,0.0000,0.8392
9.2250,0.0000,0.0000,0.8809
9.2300,0.0000,0.0000,0.8314
9.2350,0.0000,0.0000,0.7893
9.2400,0.0000,0.0000,1.0084
9.2450,0.0000,0.0000,0.9442
9.2500,0.0000,0.0000,0.6896
9.2550,0.0000,0.0000,0.8257
9.2600,0.0000,0.0000,0.8636
9.2650,0.0000,0.0000,0.8191
9.2700,0.0000,0.0000,0.9692
9.2750,0.0000,0.0000,0.9269
9.2800,0.0000,0.0000,0.9956
9.2850,0.0000,0.0000,0.7896
9.2900,0.0000,0.0000,0.8620
9.2950,0.0000,0.0000,0.8992
9.3000,0.0000,0.0000,0.9061
9.3050,0.0000,0.0000,0.9094
9.3100,0.0000,0.0000,0.8603
9.3150,0.0000,0.0000,0.9372
9.3200,0.0000,0.0000,1.1492
9.3250,0.0000,0.0000,0.8619
9.3300,0.0000,0.0000,0.7540
9.3350,0.0000,0.0000,0.9867
9.3400,0.0000,0.0000,0.8431
9.3450,0.0000,0.0000,1.0496
9.3500,0.0000,0.0000,1.0781
9.3550,0.0000,0.0000,1.1545
9.3600,0.0000,0.0000,0.9712
9.3650,0.0000,0.0000,0.7515
9.3700,0.0000,0.0000,1.1460
9.3750,0.0000,0.0000,1.0647
9.3800,0.0000,0.0000,1.1084
9.3850,0.0000,0.0000,0.9659
9.3900,0.0000,0.0000,0.9126
9.3950,0.0000,0.0000,0.9578
9.4000,0.0000,0.0000,0.7338
9.4050,0.0000,0.0000,1.0733
9.4100,0.0000,0.0000,0.8811
9.4150,0.0000,0.0000,0.8820
9.4200,0.0000,0.0000,0.9998
9.4250,0.0000,0.0000,0.8524
9.4300,0.0000,0.0000,1.0530
9.4350,0.0000,0.0000,0.8831
9.4400,0.0000,0.0000,1.2396
9.4450,0.0000,0.0000,1.1069
9.4500,0.0000,0.0000,1.0396
9.4550,0.0000,0.0000,0.9968
9.4600,0.0000,0.0000,0.9653
9.4650,0.0000,0.0000,0.8989
9.4700,0.0000,0.0000,0.7295
9.4750,0.0000,0.0000,0.8932
9.4800,0.0000,0.0000,0.8647
9.4850,0.0000,0.0000,0.8993
9.4900,0.0000,0.0000,0.9703
9.4950,0.0000,0.0000,0.7353
9.5000,0.0000,0.0000,0.8116
9.5050,0.0000,0.0000,0.8792
9.5100,0.0000,0.0000,0.9062
9.5150,0.0000,0.0000,1.0707
9.5200,0.0000,0.0000,1.2809
9.5250,0.0000,0.0000,0.9446
9.5300,0.0000,0.0000,1.0406
9.5350,0.0000,0.0000,0.9624
9.5400,0.0000,0.0000,0.9948
9.5450,0.0000,0.0000,1.1726
9.5500,0.0000,0.0000,0.9848
9.5550,0.0000,0.0000,1.0324
9.5600,0.0000,0.0000,0.9704
9.5650,0.0000,0.0000,0.8908
9.5700,0.0000,0.0000,1.0947
9.5750,0.0000,0.0000,0.9454
9.5800,0.0000,0.0000,1.1430
9.5850,0.0000,0.0000,0.8326
9.5900,0.0000,0.0000,1.0211
9.5950,0.0000,0.0000,1.1685
9.6000,0.0000,0.0000,0.8926
9.6050,0.0000,0.0000,1.0095
9.6100,0.0000,0.0000,1.1457
9.6150,0.0000,0.0000,1.0202
9.6200,0.0000,0.0000,0.8726
9.6250,0.0000,0.0000,0.9294
9.6300,0.0000,0.0000,1.0074
9.6350,0.0000,0.0000,0.8993
9.6400,0.0000,0.0000,0.9204
9.6450,0.0000,0.0000,0.9864
9.6500,0.0000,0.0000,0.8222
9.6550,0.0000,0.0000,1.1711
9.6600,0.0000,0.0000,0.9008
9.6650,0.0000,0.0000,0.9705
9.6700,0.0000,0.0000,0.9854
9.6750,0.0000,0.0000,1.1432
9.6800,0.0000,0.0000,0.9282
9.6850,0.0000,0.0000,1.2189
9.6900,0.0000,0.0000,1.1970
9.6950,0.0000,0.0000,1.0627
9.7000,0.0000,0.0000,0.8125
9.7050,0.0000,0.0000,0.8190
9.7100,0.0000,0.0000,0.9463
9.7150,0.0000,0.0000,1.0104
9.7200,0.0000,0.0000,1.0540
9.7250,0.0000,0.0000,1.1240
9.7300,0.0000,0.0000,1.0329
9.7350,0.0000,0.0000,0.9854
9.7400,0.0000,0.0000,1.0261
9.7450,0.0000,0.0000,0.7358
9.7500,0.0000,0.0000,1.1188
9.7550,0.0000,0.0000,0.7980
9.7600,0.0000,0.0000,0.7478
9.7650,0.0000,0.0000,0.8956
9.7700,0.0000,0.0000,0.9294
9.7750,0.0000,0.0000,0.8344
9.7800,0.0000,0.0000,0.9561
9.7850,0.0000,0.0000,0.9923
9.7900,0.0000,0.0000,1.0576
9.7950,0.0000,0.0000,1.0297
9.8000,0.0000,0.0000,0.9225
9.8050,0.0000,0.0000,0.9969
9.8100,0.0000,0.0000,1.1371
9.8150,0.0000,0.0000,0.9539
9.8200,0.0000,0.0000,0.9681
9.8250,0.0000,0.0000,0.7307
9.8300,0.0000,0.0000,1.0215
9.8350,0.0000,0.0000,1.2321
9.8400,0.0000,0.0000,1.0766
9.8450,0.0000,0.0000,0.9609
9.8500,0.0000,0.0000,1.1378
9.8550,0.0000,0.0000,1.1392
9.8600,0.0000,0.0000,1.1523
9.8650,0.0000,0.0000,0.8503
9.8700,0.0000,0.0000,0.8512
9.8750,0.0000,0.0000,1.0771
9.8800,0.0000,0.0000,1.0550
9.8850,0.0000,0.0000,1.0468
9.8900,0.0000,0.0000,0.8166
9.8950,0.0000,0.0000,1.0869
9.9000,0.0000,0.0000,1.2243
9.9050,0.0000,0.0000,1.1369
9.9100,0.0000,0.0000,1.3033
9.9150,0.0000,0.0000,1.0511
9.9200,0.0000,0.0000,1.0107
9.9250,0.0000,0.0000,1.2140
9.9300,0.0000,0.0000,1.1171
9.9350,0.0000,0.0000,0.7225
9.9400,0.0000,0.0000,0.8117
9.9450,0.0000,0.0000,1.0294
9.9500,0.0000,0.0000,0.9360
9.9550,0.0000,0.0000,1.2149
9.9600,0.0000,0.0000,1.1892
9.9650,0.0000,0.0000,1.1540
9.9700,0.0000,0.0000,0.9613
9.9750,0.0000,0.0000,0.9741
9.9800,0.0000,0.0000,1.0957
9.9850,0.0000,0.0000,0.9609
9.9900,0.0000,0.0000,1.0836
9.9950,0.0000,0.0000,1.0381
10.0000,0.0000,0.0000,1.0961
10.0050,0.0000,0.0000,1.0171
10.0100,0.0000,0.0000,0.9116
10.0150,0.0000,0.0000,0.6540
10.0200,0.0000,0.0000,0.8422
10.0250,0.0000,0.0000,0.8294
10.0300,0.0000,0.0000,1.0862
10.0350,0.0000,0.0000,0.8325
10.0400,0.0000,0.0000,0.9354
10.0450,0.0000,0.0000,1.0649
10.0500,0.0000,0.0000,1.0888
10.0550,0.0000,0.0000,1.1306
10.0600,0.0000,0.0000,1.0616
10.0650,0.0000,0.0000,1.1949
10.0700,0.0000,0.0000,0.9389
10.0750,0.0000,0.0000,1.1497
10.0800,0.0000,0.0000,0.8459
10.0850,0.0000,0.0000,0.9594
10.0900,0.0000,0.0000,1.0602
10.0950,0.0000,0.0000,1.0854
10.1000,0.0000,0.0000,0.9781
10.1050,0.0000,0.0000,0.9328
10.1100,0.0000,0.0000,0.8631
10.1150,0.0000,0.0000,0.7370
10.1200,0.0000,0.0000,0.7761
10.1250,0.0000,0.0000,1.2083
10.1300,0.0000,0.0000,0.7949
10.1350,0.0000,0.0000,0.8228
10.1400,0.0000,0.0000,0.8151
10.1450,0.0000,0.0000,0.9806
10.1500,0.0000,0.0000,0.9814
10.1550,0.0000,0.0000,0.9423
10.1600,0.0000,0.0000,0.8576
10.1650,0.0000,0.0000,0.9975
10.1700,0.0000,0.0000,0.8441
10.1750,0.0000,0.0000,1.0561
10.1800,0.0000,0.0000,1.1964
10.1850,0.0000,0.0000,0.9016
10.1900,0.0000,0.0000,1.0430
10.1950,0.0000,0.0000,0.9562
10.2000,0.0000,0.0000,0.9695
10.2050,0.0000,0.0000,0.8575
10.2100,0.0000,0.0000,1.0272
10.2150,0.0000,0.0000,1.0165
10.2200,0.0000,0.0000,1.1733
10.2250,0.0000,0.0000,1.3096
10.2300,0.0000,0.0000,0.8904
10.2350,0.0000,0.0000,1.1562
10.2400,0.0000,0.0000,0.9205
10.2450,0.0000,0.0000,0.9564
10.2500,0.0000,0.0000,0.8798
10.2550,0.0000,0.0000,1.0811
10.2600,0.0000,0.0000,1.1711
10.2650,0.0000,0.0000,1.0102
10.2700,0.0000,0.0000,1.0499
10.2750,0.0000,0.0000,0.9260
10.2800,0.0000,0.0000,0.9863
10.2850,0.0000,0.0000,0.8668
10.2900,0.0000,0.0000,1.0158
10.2950,0.0000,0.0000,0.7797
10.3000,0.0000,0.0000,1.3017
10.3050,0.0000,0.0000,1.1779
10.3100,0.0000,0.0000,0.9559
10.3150,0.0000,0.0000,0.9686
10.3200,0.0000,0.0000,0.9756
10.3250,0.0000,0.0000,1.0408
10.3300,0.0000,0.0000,1.0562
10.3350,0.0000,0.0000,1.2568
10.3400,0.0000,0.0000,0.9717
10.3450,0.0000,0.0000,0.7967
10.3500,0.0000,0.0000,1.0607
10.3550,0.0000,0.0000,1.0800
10.3600,0.0000,0.0000,0.9294
10.3650,0.0000,0.0000,1.1283
10.3700,0.0000,0.0000,1.0075
10.3750,0.0000,0.0000,0.9345
10.3800,0.0000,0.0000,1.0201
10.3850,0.0000,0.0000,0.8747
10.3900,0.0000,0.0000,0.9827
10.3950,0.0000,0.0000,1.2390
10.4000,0.0000,0.0000,1.1780
10.4050,0.0000,0.0000,1.1063
10.4100,0.0000,0.0000,1.0484
10.4150,0.0000,0.0000,1.0680
10.4200,0.0000,0.0000,0.8916
10.4250,0.0000,0.0000,1.0556
10.4300,0.0000,0.0000,0.9477
10.4350,0.0000,0.0000,0.9609
10.4400,0.0000,0.0000,1.2267
10.4450,0.0000,0.0000,0.9471
10.4500,0.0000,0.0000,1.0442
10.4550,0.0000,0.0000,1.0475
10.4600,0.0000,0.0000,1.1578
10.4650,0.0000,0.0000,1.0082
10.4700,0.0000,0.0000,1.0981
10.4750,0.0000,0.0000,1.0850
10.4800,0.0000,0.0000,1.0163
10.4850,0.0000,0.0000,0.9684
10.4900,0.0000,0.0000,0.9139
10.4950,0.0000,0.0000,1.1692
10.5000,0.0000,0.0000,0.9357
10.5050,0.0000,0.0000,1.1806
10.5100,0.0000,0.0000,1.2428
10.5150,0.0000,0.0000,0.9734
10.5200,0.0000,0.0000,0.9250
10.5250,0.0000,0.0000,0.9205
10.5300,0.0000,0.0000,0.9793
10.5350,0.0000,0.0000,1.2020
10.5400,0.0000,0.0000,0.9480
10.5450,0.0000,0.0000,0.9142
10.5500,0.0000,0.0000,0.8431
10.5550,0.0000,0.0000,1.0549
10.5600,0.0000,0.0000,1.0970
10.5650,0.0000,0.0000,1.2257
10.5700,0.0000,0.0000,1.0761
10.5750,0.0000,0.0000,1.0398
10.5800,0.0000,0.0000,1.0398
10.5850,0.0000,0.0000,1.3945
10.5900,0.0000,0.0000,1.2372
10.5950,0.0000,0.0000,1.1547
10.6000,0.0000,0.0000,1.0054
10.6050,0.0000,0.0000,1.0232
10.6100,0.0000,0.0000,1.0354
10.6150,0.0000,0.0000,1.0350
10.6200,0.0000,0.0000,1.1055
10.6250,0.0000,0.0000,0.9636
10.6300,0.0000,0.0000,1.2739
10.6350,0.0000,0.0000,0.9287
10.6400,0.0000,0.0000,1.1264
10.6450,0.0000,0.0000,1.1391
10.6500,0.0000,0.0000,1.1632
10.6550,0.0000,0.0000,1.2125
10.6600,0.0000,0.0000,1.0861
10.6650,0.0000,0.0000,1.0740
10.6700,0.0000,0.0000,1.2246
10.6750,0.0000,0.0000,1.2060
10.6800,0.0000,0.0000,1.0499
10.6850,0.0000,0.0000,1.1540
10.6900,0.0000,0.0000,0.9048
10.6950,0.0000,0.0000,1.0987
10.7000,0.0000,0.0000,0.7997
10.7050,0.0000,0.0000,1.1995
10.7100,0.0000,0.0000,0.9751
10.7150,0.0000,0.0000,1.1637
10.7200,0.0000,0.0000,1.1069
10.7250,0.0000,0.0000,0.9806
10.7300,0.0000,0.0000,1.1540
10.7350,0.0000,0.0000,1.2519
10.7400,0.0000,0.0000,0.9473
10.7450,0.0000,0.0000,1.2810
10.7500,0.0000,0.0000,1.1001
10.7550,0.0000,0.0000,0.9452
10.7600,0.0000,0.0000,1.0219
10.7650,0.0000,0.0000,1.0977
10.7700,0.0000,0.0000,1.1405
10.7750,0.0000,0.0000,0.9571
10.7800,0.0000,0.0000,1.0088
10.7850,0.0000,0.0000,1.1124
10.7900,0.0000,0.0000,1.0866
10.7950,0.0000,0.0000,1.2913
10.8000,0.0000,0.0000,1.1539
10.8050,0.0000,0.0000,1.1616
10.8100,0.0000,0.0000,0.9469
10.8150,0.0000,0.0000,0.9473
10.8200,0.0000,0.0000,0.9292
10.8250,0.0000,0.0000,1.0482
10.8300,0.0000,0.0000,1.1298
10.8350,0.0000,0.0000,1.2578
10.8400,0.0000,0.0000,1.1732
10.8450,0.0000,0.0000,0.9566
10.8500,0.0000,0.0000,1.0472
10.8550,0.0000,0.0000,1.3147
10.8600,0.0000,0.0000,1.0719
10.8650,0.0000,0.0000,1.1200
10.8700,0.0000,0.0000,0.8906
10.8750,0.0000,0.0000,0.8889
10.8800,0.0000,0.0000,0.9978
10.8850,0.0000,0.0000,1.0244
10.8900,0.0000,0.0000,1.1190
10.8950,0.0000,0.0000,1.0404
10.9000,0.0000,0.0000,0.8510
10.9050,0.0000,0.0000,1.3472
10.9100,0.0000,0.0000,1.1022
10.9150,0.0000,0.0000,0.8550
10.9200,0.0000,0.0000,1.2577
10.9250,0.0000,0.0000,1.1567
10.9300,0.0000,0.0000,1.0349
10.9350,0.0000,0.0000,1.0594
10.9400,0.0000,0.0000,1.1164
10.9450,0.0000,0.0000,0.7803
10.9500,0.0000,0.0000,1.1750
10.9550,0.0000,0.0000,1.0876
10.9600,0.0000,0.0000,1.1365
10.9650,0.0000,0.0000,0.9859
10.9700,0.0000,0.0000,0.9803
10.9750,0.0000,0.0000,1.2453
10.9800,0.0000,0.0000,0.6523
10.9850,0.0000,0.0000,1.2012
10.9900,0.0000,0.0000,1.1945
10.9950,0.0000,0.0000,0.8611
11.0000,0.0000,0.0000,1.0265
11.0050,0.0000,0.0000,0.9713
11.0100,0.0000,0.0000,0.9864
11.0150,0.0000,0.0000,0.9015
11.0200,0.0000,0.0000,0.8927
11.0250,0.0000,0.0000,1.0635
11.0300,0.0000,0.0000,1.0195
11.0350,0.0000,0.0000,1.1214
11.0400,0.0000,0.0000,1.1440
11.0450,0.0000,0.0000,0.9859
11.0500,0.0000,0.0000,1.3044
11.0550,0.0000,0.0000,1.2484
11.0600,0.0000,0.0000,0.8658
11.0650,0.0000,0.0000,1.0331
11.0700,0.0000,0.0000,1.0089
11.0750,0.0000,0.0000,1.1026
11.0800,0.0000,0.0000,0.9322
11.0850,0.0000,0.0000,1.2419
11.0900,0.0000,0.0000,1.0047
11.0950,0.0000,0.0000,1.3058
11.1000,0.0000,0.0000,0.9580
11.1050,0.0000,0.0000,1.2846
11.1100,0.0000,0.0000,1.0994
11.1150,0.0000,0.0000,1.1604
11.1200,0.0000,0.0000,1.0898
11.1250,0.0000,0.0000,1.0919
11.1300,0.0000,0.0000,0.9292
11.1350,0.0000,0.0000,1.0260
11.1400,0.0000,0.0000,0.9604
11.1450,0.0000,0.0000,1.0220
11.1500,0.0000,0.0000,1.0021
11.1550,0.0000,0.0000,1.1393
11.1600,0.0000,0.0000,1.0804
11.1650,0.0000,0.0000,1.0111
11.1700,0.0000,0.0000,0.8365
11.1750,0.0000,0.0000,1.1583
11.1800,0.0000,0.0000,0.9568
11.1850,0.0000,0.0000,0.9990
11.1900,0.0000,0.0000,1.0966
11.1950,0.0000,0.0000,1.0378
11.2000,0.0000,0.0000,1.0530
11.2050,0.0000,0.0000,1.0551
11.2100,0.0000,0.0000,0.8176
11.2150,0.0000,0.0000,1.1262
11.2200,0.0000,0.0000,1.0174
11.2250,0.0000,0.0000,1.1334
11.2300,0.0000,0.0000,1.0510
11.2350,0.0000,0.0000,0.9903
11.2400,0.0000,0.0000,1.2121
11.2450,0.0000,0.0000,1.0550
11.2500,0.0000,0.0000,1.1603
11.2550,0.0000,0.0000,1.1123
11.2600,0.0000,0.0000,1.1347
11.2650,0.0000,0.0000,1.1628
11.2700,0.0000,0.0000,1.1124
11.2750,0.0000,0.0000,0.9276
11.2800,0.0000,0.0000,1.0088
11.2850,0.0000,0.0000,1.1988
11.2900,0.0000,0.0000,1.0199
11.2950,0.0000,0.0000,0.9931
11.3000,0.0000,0.0000,1.0393
11.3050,0.0000,0.0000,1.1479
11.3100,0.0000,0.0000,0.9353
11.3150,0.0000,0.0000,1.0273
11.3200,0.0000,0.0000,0.9801
11.3250,0.0000,0.0000,0.9528
11.3300,0.0000,0.0000,1.1220
11.3350,0.0000,0.0000,0.9663
11.3400,0.0000,0.0000,1.0375
11.3450,0.0000,0.0000,1.0762
11.3500,0.0000,0.0000,1.0866
11.3550,0.0000,0.0000,1.0874
11.3600,0.0000,0.0000,1.1196
11.3650,0.0000,0.0000,0.9432
11.3700,0.0000,0.0000,0.7417
11.3750,0.0000,0.0000,1.1327
11.3800,0.0000,0.0000,1.2257
11.3850,0.0000,0.0000,0.9827
11.3900,0.0000,0.0000,1.0315
11.3950,0.0000,0.0000,1.1312
11.4000,0.0000,0.0000,0.9314
11.4050,0.0000,0.0000,1.0207
11.4100,0.0000,0.0000,0.9757
11.4150,0.0000,0.0000,1.0908
11.4200,0.0000,0.0000,1.0335
11.4250,0.0000,0.0000,1.2214
11.4300,0.0000,0.0000,0.9178
11.4350,0.0000,0.0000,0.9423
11.4400,0.0000,0.0000,0.8579
11.4450,0.0000,0.0000,1.0496
11.4500,0.0000,0.0000,1.0096
11.4550,0.0000,0.0000,0.9958
11.4600,0.0000,0.0000,1.0930
11.4650,0.0000,0.0000,0.9072
11.4700,0.0000,0.0000,0.8527
11.4750,0.0000,0.0000,1.2713
11.4800,0.0000,0.0000,1.0219
11.4850,0.0000,0.0000,0.9054
11.4900,0.0000,0.0000,1.1435
11.4950,0.0000,0.0000,1.0356
11.5000,0.0000,0.0000,0.9074
11.5050,0.0000,0.0000,1.0580
11.5100,0.0000,0.0000,1.1431
11.5150,0.0000,0.0000,1.1048
11.5200,0.0000,0.0000,1.0076
11.5250,0.0000,0.0000,1.2164
11.5300,0.0000,0.0000,0.9145
11.5350,0.0000,0.0000,0.9945
11.5400,0.0000,0.0000,1.0720
11.5450,0.0000,0.0000,0.8953
11.5500,0.0000,0.0000,1.0948
11.5550,0.0000,0.0000,1.0596
11.5600,0.0000,0.0000,1.1302
11.5650,0.0000,0.0000,1.0508
11.5700,0.0000,0.0000,1.2484
11.5750,0.0000,0.0000,0.8540
11.5800,0.0000,0.0000,0.9680
11.5850,0.0000,0.0000,0.9509
11.5900,0.0000,0.0000,1.0125
11.5950,0.0000,0.0000,1.0875
11.6000,0.0000,0.0000,0.8870
11.6050,0.0000,0.0000,1.1285
11.6100,0.0000,0.0000,1.1431
11.6150,0.0000,0.0000,1.0242
11.6200,0.0000,0.0000,0.8468
11.6250,0.0000,0.0000,1.0835
11.6300,0.0000,0.0000,1.0592
11.6350,0.0000,0.0000,0.8960
11.6400,0.0000,0.0000,0.9261
11.6450,0.0000,0.0000,0.9445
11.6500,0.0000,0.0000,0.8381
11.6550,0.0000,0.0000,1.0493
11.6600,0.0000,0.0000,1.1371
11.6650,0.0000,0.0000,1.0467
11.6700,0.0000,0.0000,0.9233
11.6750,0.0000,0.0000,0.9982
11.6800,0.0000,0.0000,1.0005
11.6850,0.0000,0.0000,1.2220
11.6900,0.0000,0.0000,0.9519
11.6950,0.0000,0.0000,1.0610
11.7000,0.0000,0.0000,0.9654
11.7050,0.0000,0.0000,1.1386
11.7100,0.0000,0.0000,0.9061
11.7150,0.0000,0.0000,1.0617
11.7200,0.0000,0.0000,0.9581
11.7250,0.0000,0.0000,1.0698
11.7300,0.0000,0.0000,0.8317
11.7350,0.0000,0.0000,0.9889
11.7400,0.0000,0.0000,1.1290
11.7450,0.0000,0.0000,1.0778
11.7500,0.0000,0.0000,0.8743
11.7550,0.0000,0.0000,1.3029
11.7600,0.0000,0.0000,1.0501
11.7650,0.0000,0.0000,0.9666
11.7700,0.0000,0.0000,0.9537
11.7750,0.0000,0.0000,0.8857
11.7800,0.0000,0.0000,1.1770
11.7850,0.0000,0.0000,1.1466
11.7900,0.0000,0.0000,1.1654
11.7950,0.0000,0.0000,0.8731
11.8000,0.0000,0.0000,0.7708
11.8050,0.0000,0.0000,0.7362
11.8100,0.0000,0.0000,0.8174
11.8150,0.0000,0.0000,0.9245
11.8200,0.0000,0.0000,0.8494
11.8250,0.0000,0.0000,0.7907
11.8300,0.0000,0.0000,1.0480
11.8350,0.0000,0.0000,0.9040
11.8400,0.0000,0.0000,1.0234
11.8450,0.0000,0.0000,1.1290
11.8500,0.0000,0.0000,0.8884
11.8550,0.0000,0.0000,0.9228
11.8600,0.0000,0.0000,1.1316
11.8650,0.0000,0.0000,0.8027
11.8700,0.0000,0.0000,0.9239
11.8750,0.0000,0.0000,0.8439
11.8800,0.0000,0.0000,0.9538
11.8850,0.0000,0.0000,0.9055
11.8900,0.0000,0.0000,1.0018
11.8950,0.0000,0.0000,0.9206
11.9000,0.0000,0.0000,1.1169
11.9050,0.0000,0.0000,0.8824
11.9100,0.0000,0.0000,0.9645
11.9150,0.0000,0.0000,1.0543
11.9200,0.0000,0.0000,0.8685
11.9250,0.0000,0.0000,0.8980
11.9300,0.0000,0.0000,0.9583
11.9350,0.0000,0.0000,0.9244
11.9400,0.0000,0.0000,2.9375
11.9450,0.0000,0.0000,2.7574
11.9500,0.0000,0.0000,2.6640
11.9550,0.0000,0.0000,2.9188
11.9600,0.0000,0.0000,2.7436
11.9650,0.0000,0.0000,2.7648
11.9700,0.0000,0.0000,2.8094
11.9750,0.0000,0.0000,2.9742
11.9800,0.0000,0.0000,2.9348
11.9850,0.0000,0.0000,2.8619
11.9900,0.0000,0.0000,2.8713
11.9950,0.0000,0.0000,2.7891
12.0000,0.0000,0.0000,0.0258
12.0050,0.0000,0.0000,0.0276
12.0100,0.0000,0.0000,0.0040
12.0150,0.0000,0.0000,0.0914
12.0200,0.0000,0.0000,0.0137
12.0250,0.0000,0.0000,0.0322
12.0300,0.0000,0.0000,0.0358
12.0350,0.0000,0.0000,0.0913
12.0400,0.0000,0.0000,0.0019
12.0450,0.0000,0.0000,0.0344
12.0500,0.0000,0.0000,0.0357
12.0550,0.0000,0.0000,0.0067
12.0600,0.0000,0.0000,0.0589
12.0650,0.0000,0.0000,0.1017
12.0700,0.0000,0.0000,0.0262
12.0750,0.0000,0.0000,0.0148
12.0800,0.0000,0.0000,0.0317
12.0850,0.0000,0.0000,0.0112
12.0900,0.0000,0.0000,0.0586
12.0950,0.0000,0.0000,0.0033
12.1000,0.0000,0.0000,0.0688
12.1050,0.0000,0.0000,0.0354
12.1100,0.0000,0.0000,0.0045
12.1150,0.0000,0.0000,0.0364
12.1200,0.0000,0.0000,0.0543
12.1250,0.0000,0.0000,0.0091
12.1300,0.0000,0.0000,0.0361
12.1350,0.0000,0.0000,0.0150
12.1400,0.0000,0.0000,0.0162
12.1450,0.0000,0.0000,0.0413
12.1500,0.0000,0.0000,0.0029
12.1550,0.0000,0.0000,0.0772
12.1600,0.0000,0.0000,0.0267
12.1650,0.0000,0.0000,0.0172
12.1700,0.0000,0.0000,0.0452
12.1750,0.0000,0.0000,0.0452
12.1800,0.0000,0.0000,0.0157
12.1850,0.0000,0.0000,0.0436
12.1900,0.0000,0.0000,0.0362
12.1950,0.0000,0.0000,0.0877
12.2000,0.0000,0.0000,0.1126
12.2050,0.0000,0.0000,0.0063
12.2100,0.0000,0.0000,0.0115
12.2150,0.0000,0.0000,0.0861
12.2200,0.0000,0.0000,0.0382
12.2250,0.0000,0.0000,0.0136
12.2300,0.0000,0.0000,0.0253
12.2350,0.0000,0.0000,0.0630
12.2400,0.0000,0.0000,0.0692
12.2450,0.0000,0.0000,0.0930
12.2500,0.0000,0.0000,0.0344
12.2550,0.0000,0.0000,0.0337
12.2600,0.0000,0.0000,0.0368
12.2650,0.0000,0.0000,0.0917
12.2700,0.0000,0.0000,0.0902
12.2750,0.0000,0.0000,0.0857
12.2800,0.0000,0.0000,0.0945
12.2850,0.0000,0.0000,0.0020
12.2900,0.0000,0.0000,0.0677
12.2950,0.0000,0.0000,0.0982
12.3000,0.0000,0.0000,0.0114
12.3050,0.0000,0.0000,0.0299
12.3100,0.0000,0.0000,0.0464
12.3150,0.0000,0.0000,0.0479
12.3200,0.0000,0.0000,0.0025
12.3250,0.0000,0.0000,0.0304
12.3300,0.0000,0.0000,0.0278
12.3350,0.0000,0.0000,0.0689
12.3400,0.0000,0.0000,0.0282
12.3450,0.0000,0.0000,0.0432
12.3500,0.0000,0.0000,0.0777
12.3550,0.0000,0.0000,0.1294
12.3600,0.0000,0.0000,0.0221
12.3650,0.0000,0.0000,0.0329
12.3700,0.0000,0.0000,0.0171
12.3750,0.0000,0.0000,0.1055
12.3800,0.0000,0.0000,0.0589
12.3850,0.0000,0.0000,0.0258
12.3900,0.0000,0.0000,0.0320
12.3950,0.0000,0.0000,0.0078
12.4000,0.0000,0.0000,0.0599
12.4050,0.0000,0.0000,0.0092
12.4100,0.0000,0.0000,0.0201
12.4150,0.0000,0.0000,0.1029
12.4200,0.0000,0.0000,0.0468
12.4250,0.0000,0.0000,0.0060
12.4300,0.0000,0.0000,0.0650
12.4350,0.0000,0.0000,0.0335
12.4400,0.0000,0.0000,0.0277
12.4450,0.0000,0.0000,0.0801
12.4500,0.0000,0.0000,0.0300
12.4550,0.0000,0.0000,0.0853
12.4600,0.0000,0.0000,0.0405
12.4650,0.0000,0.0000,0.0465
12.4700,0.0000,0.0000,0.0208
12.4750,0.0000,0.0000,0.0939
12.4800,0.0000,0.0000,0.0420
12.4850,0.0000,0.0000,0.0268
12.4900,0.0000,0.0000,0.0071
12.4950,0.0000,0.0000,0.0142
12.5000,0.0000,0.0000,0.1012
12.5050,0.0000,0.0000,0.0145
12.5100,0.0000,0.0000,0.0334
12.5150,0.0000,0.0000,0.0587
12.5200,0.0000,0.0000,0.0447
12.5250,0.0000,0.0000,0.0332
12.5300,0.0000,0.0000,0.0049
12.5350,0.0000,0.0000,0.0711
12.5400,0.0000,0.0000,0.0358
12.5450,0.0000,0.0000,0.0092
12.5500,0.0000,0.0000,0.0281
12.5550,0.0000,0.0000,0.0744
12.5600,0.0000,0.0000,0.0360
12.5650,0.0000,0.0000,0.0144
12.5700,0.0000,0.0000,0.0261
12.5750,0.0000,0.0000,0.0012
12.5800,0.0000,0.0000,0.1249
12.5850,0.0000,0.0000,0.0430
12.5900,0.0000,0.0000,0.0479
12.5950,0.0000,0.0000,0.0567
12.6000,0.0000,0.0000,0.0862
12.6050,0.0000,0.0000,0.0376
12.6100,0.0000,0.0000,0.0893
12.6150,0.0000,0.0000,0.0454
12.6200,0.0000,0.0000,0.0859
12.6250,0.0000,0.0000,0.0172
12.6300,0.0000,0.0000,0.1028
12.6350,0.0000,0.0000,0.0914
12.6400,0.0000,0.0000,0.0069
12.6450,0.0000,0.0000,0.0255
12.6500,0.0000,0.0000,0.0462
12.6550,0.0000,0.0000,0.0335
12.6600,0.0000,0.0000,0.0121
12.6650,0.0000,0.0000,0.0260
12.6700,0.0000,0.0000,0.0694
12.6750,0.0000,0.0000,0.0523
12.6800,0.0000,0.0000,0.0691
12.6850,0.0000,0.0000,0.0301
12.6900,0.0000,0.0000,0.0256
12.6950,0.0000,0.0000,0.0629
12.7000,0.0000,0.0000,0.0041
12.7050,0.0000,0.0000,0.0003
12.7100,0.0000,0.0000,0.0233
12.7150,0.0000,0.0000,0.0072
12.7200,0.0000,0.0000,0.0818
12.7250,0.0000,0.0000,0.0826
12.7300,0.0000,0.0000,0.0417
12.7350,0.0000,0.0000,0.0112
12.7400,0.0000,0.0000,0.0649
12.7450,0.0000,0.0000,0.0566
12.7500,0.0000,0.0000,0.0435
12.7550,0.0000,0.0000,0.0358
12.7600,0.0000,0.0000,0.0371
12.7650,0.0000,0.0000,0.0486
12.7700,0.0000,0.0000,0.0298
12.7750,0.0000,0.0000,0.0104
12.7800,0.0000,0.0000,0.0005
12.7850,0.0000,0.0000,0.0179
12.7900,0.0000,0.0000,0.0807
12.7950,0.0000,0.0000,0.0462
12.8000,0.0000,0.0000,0.0279
12.8050,0.0000,0.0000,0.0141
12.8100,0.0000,0.0000,0.0106
12.8150,0.0000,0.0000,0.0417
12.8200,0.0000,0.0000,0.0729
12.8250,0.0000,0.0000,0.0231
12.8300,0.0000,0.0000,0.1065
12.8350,0.0000,0.0000,0.0781
12.8400,0.0000,0.0000,0.0411
12.8450,0.0000,0.0000,0.0253
12.8500,0.0000,0.0000,0.0692
12.8550,0.0000,0.0000,0.0882
12.8600,0.0000,0.0000,0.0568
12.8650,0.0000,0.0000,0.0434
12.8700,0.0000,0.0000,0.0435
12.8750,0.0000,0.0000,0.0071
12.8800,0.0000,0.0000,0.0511
12.8850,0.0000,0.0000,0.0029
12.8900,0.0000,0.0000,0.0368
12.8950,0.0000,0.0000,0.0392
12.9000,0.0000,0.0000,0.0193
12.9050,0.0000,0.0000,0.0314
12.9100,0.0000,0.0000,0.0072
12.9150,0.0000,0.0000,0.0247
12.9200,0.0000,0.0000,0.0350
12.9250,0.0000,0.0000,0.1500
12.9300,0.0000,0.0000,0.0162
12.9350,0.0000,0.0000,0.0345
12.9400,0.0000,0.0000,0.0207
12.9450,0.0000,0.0000,0.0453
12.9500,0.0000,0.0000,0.1058
12.9550,0.0000,0.0000,0.0266
12.9600,0.0000,0.0000,0.0153
12.9650,0.0000,0.0000,0.0377
12.9700,0.0000,0.0000,0.0212
12.9750,0.0000,0.0000,0.0150
12.9800,0.0000,0.0000,0.1088
12.9850,0.0000,0.0000,0.0620
12.9900,0.0000,0.0000,0.0091
12.9950,0.0000,0.0000,0.0313
13.0000,0.0000,0.0000,4.1607
13.0050,0.0000,0.0000,4.7647
13.0100,0.0000,0.0000,4.6170
13.0150,0.0000,0.0000,4.9912
13.0200,0.0000,0.0000,4.4318
13.0250,0.0000,0.0000,4.4023
13.0300,0.0000,0.0000,0.7330
13.0350,0.0000,0.0000,1.0168
13.0400,0.0000,0.0000,0.8899
13.0450,0.0000,0.0000,0.7792
13.0500,0.0000,0.0000,0.8342
13.0550,0.0000,0.0000,1.0015
13.0600,0.0000,0.0000,1.0462
13.0650,0.0000,0.0000,1.0131
13.0700,0.0000,0.0000,1.0573
13.0750,0.0000,0.0000,1.1015
13.0800,0.0000,0.0000,0.9312
13.0850,0.0000,0.0000,0.9698
13.0900,0.0000,0.0000,0.9411
13.0950,0.0000,0.0000,0.9367
13.1000,0.0000,0.0000,0.9578
13.1050,0.0000,0.0000,0.9974
13.1100,0.0000,0.0000,0.9133
13.1150,0.0000,0.0000,0.9905
13.1200,0.0000,0.0000,1.0863
13.1250,0.0000,0.0000,0.9393
13.1300,0.0000,0.0000,1.0432
13.1350,0.0000,0.0000,0.8678
13.1400,0.0000,0.0000,0.8752
13.1450,0.0000,0.0000,1.1859
13.1500,0.0000,0.0000,0.9607
13.1550,0.0000,0.0000,1.1261
13.1600,0.0000,0.0000,0.7379
13.1650,0.0000,0.0000,0.6896
13.1700,0.0000,0.0000,0.9737
13.1750,0.0000,0.0000,0.9480
13.1800,0.0000,0.0000,0.7011
13.1850,0.0000,0.0000,1.0671
13.1900,0.0000,0.0000,1.0570
13.1950,0.0000,0.0000,0.8960
13.2000,0.0000,0.0000,1.0533
13.2050,0.0000,0.0000,1.0567
13.2100,0.0000,0.0000,0.9918
13.2150,0.0000,0.0000,0.9133
13.2200,0.0000,0.0000,1.0627
13.2250,0.0000,0.0000,0.9306
13.2300,0.0000,0.0000,0.9217
13.2350,0.0000,0.0000,0.8194
13.2400,0.0000,0.0000,0.9983
13.2450,0.0000,0.0000,1.1367
13.2500,0.0000,0.0000,0.9264
13.2550,0.0000,0.0000,0.9240
13.2600,0.0000,0.0000,0.8279
13.2650,0.0000,0.0000,0.9599
13.2700,0.0000,0.0000,1.0886
13.2750,0.0000,0.0000,0.9686
13.2800,0.0000,0.0000,1.0607
13.2850,0.0000,0.0000,1.1221
13.2900,0.0000,0.0000,0.8821
13.2950,0.0000,0.0000,0.9172
13.3000,0.0000,0.0000,1.0656
13.3050,0.0000,0.0000,0.9554
13.3100,0.0000,0.0000,0.8625
13.3150,0.0000,0.0000,0.9912
13.3200,0.0000,0.0000,1.0411
13.3250,0.0000,0.0000,1.1244
13.3300,0.0000,0.0000,0.8884
13.3350,0.0000,0.0000,1.0344
13.3400,0.0000,0.0000,1.0518
13.3450,0.0000,0.0000,0.6531
13.3500,0.0000,0.0000,1.0842
13.3550,0.0000,0.0000,0.9858
13.3600,0.0000,0.0000,0.7992
13.3650,0.0000,0.0000,1.2142
13.3700,0.0000,0.0000,1.0485
13.3750,0.0000,0.0000,1.0298
13.3800,0.0000,0.0000,1.2839
13.3850,0.0000,0.0000,1.1254
13.3900,0.0000,0.0000,0.8776
13.3950,0.0000,0.0000,1.0014
13.4000,0.0000,0.0000,1.2093
13.4050,0.0000,0.0000,1.1511
13.4100,0.0000,0.0000,1.1901
13.4150,0.0000,0.0000,0.9996
13.4200,0.0000,0.0000,1.1406
13.4250,0.0000,0.0000,0.9272
13.4300,0.0000,0.0000,0.9808
13.4350,0.0000,0.0000,1.0795
13.4400,0.0000,0.0000,0.9873
13.4450,0.0000,0.0000,1.0750
13.4500,0.0000,0.0000,0.9856
13.4550,0.0000,0.0000,1.0389
13.4600,0.0000,0.0000,1.2595
13.4650,0.0000,0.0000,1.0771
13.4700,0.0000,0.0000,1.1401
13.4750,0.0000,0.0000,0.8334
13.4800,0.0000,0.0000,0.9352
13.4850,0.0000,0.0000,1.1194
13.4900,0.0000,0.0000,0.8111
13.4950,0.0000,0.0000,0.9587
13.5000,0.0000,0.0000,0.9680
13.5050,0.0000,0.0000,1.1516
13.5100,0.0000,0.0000,0.7971
13.5150,0.0000,0.0000,0.9467
13.5200,0.0000,0.0000,1.0116
13.5250,0.0000,0.0000,1.0256
13.5300,0.0000,0.0000,0.8131
13.5350,0.0000,0.0000,1.1599
13.5400,0.0000,0.0000,1.0956
13.5450,0.0000,0.0000,1.1694
13.5500,0.0000,0.0000,1.0841
13.5550,0.0000,0.0000,1.0908
13.5600,0.0000,0.0000,0.9812
13.5650,0.0000,0.0000,0.9817
13.5700,0.0000,0.0000,0.8686
13.5750,0.0000,0.0000,1.0674
13.5800,0.0000,0.0000,0.8686
13.5850,0.0000,0.0000,1.1532
13.5900,0.0000,0.0000,1.0785
13.5950,0.0000,0.0000,0.9438
13.6000,0.0000,0.0000,1.0377
13.6050,0.0000,0.0000,0.8235
13.6100,0.0000,0.0000,0.8927
13.6150,0.0000,0.0000,0.9343
13.6200,0.0000,0.0000,0.8464
13.6250,0.0000,0.0000,0.9448
13.6300,0.0000,0.0000,0.9918
13.6350,0.0000,0.0000,0.9380
13.6400,0.0000,0.0000,0.9162
13.6450,0.0000,0.0000,0.8748
13.6500,0.0000,0.0000,0.7799
13.6550,0.0000,0.0000,1.0884
13.6600,0.0000,0.0000,0.9690
13.6650,0.0000,0.0000,1.1689
13.6700,0.0000,0.0000,0.8814
13.6750,0.0000,0.0000,0.9619
13.6800,0.0000,0.0000,1.1022
13.6850,0.0000,0.0000,1.1939
13.6900,0.0000,0.0000,1.1416
13.6950,0.0000,0.0000,1.1303
13.7000,0.0000,0.0000,0.8555
13.7050,0.0000,0.0000,1.0882
13.7100,0.0000,0.0000,1.2495
13.7150,0.0000,0.0000,0.7631
13.7200,0.0000,0.0000,1.0669
13.7250,0.0000,0.0000,1.2949
13.7300,0.0000,0.0000,0.8940
13.7350,0.0000,0.0000,1.0591
13.7400,0.0000,0.0000,1.2647
13.7450,0.0000,0.0000,1.0953
13.7500,0.0000,0.0000,1.0484
13.7550,0.0000,0.0000,1.1316
13.7600,0.0000,0.0000,1.0062
13.7650,0.0000,0.0000,1.1187
13.7700,0.0000,0.0000,1.0127
13.7750,0.0000,0.0000,1.1330
13.7800,0.0000,0.0000,0.9264
13.7850,0.0000,0.0000,1.0144
13.7900,0.0000,0.0000,1.0492
13.7950,0.0000,0.0000,0.7596
13.8000,0.0000,0.0000,1.1444
13.8050,0.0000,0.0000,0.9905
13.8100,0.0000,0.0000,0.9592
13.8150,0.0000,0.0000,0.8617
13.8200,0.0000,0.0000,1.0205
13.8250,0.0000,0.0000,0.9204
13.8300,0.0000,0.0000,1.1117
13.8350,0.0000,0.0000,1.2296
13.8400,0.0000,0.0000,0.9788
13.8450,0.0000,0.0000,0.9482
13.8500,0.0000,0.0000,1.0189
13.8550,0.0000,0.0000,1.0029
13.8600,0.0000,0.0000,1.0958
13.8650,0.0000,0.0000,0.7912
13.8700,0.0000,0.0000,1.1004
13.8750,0.0000,0.0000,1.0317
13.8800,0.0000,0.0000,0.9673
13.8850,0.0000,0.0000,0.8479
13.8900,0.0000,0.0000,1.1473
13.8950,0.0000,0.0000,1.1713
13.9000,0.0000,0.0000,1.0751
13.9050,0.0000,0.0000,1.1222
13.9100,0.0000,0.0000,1.1402
13.9150,0.0000,0.0000,1.0616
13.9200,0.0000,0.0000,1.1380
13.9250,0.0000,0.0000,0.9156
13.9300,0.0000,0.0000,1.1379
13.9350,0.0000,0.0000,0.7406
13.9400,0.0000,0.0000,1.1805
13.9450,0.0000,0.0000,1.2352
13.9500,0.0000,0.0000,1.1837
13.9550,0.0000,0.0000,0.9404
13.9600,0.0000,0.0000,1.0088
13.9650,0.0000,0.0000,1.1109
13.9700,0.0000,0.0000,0.9391
13.9750,0.0000,0.0000,1.0900
13.9800,0.0000,0.0000,1.0351
13.9850,0.0000,0.0000,1.2265
13.9900,0.0000,0.0000,0.9860
13.9950,0.0000,0.0000,0.9777
14.0000,0.0000,0.0000,1.1135
14.0050,0.0000,0.0000,1.1724
14.0100,0.0000,0.0000,1.0046
14.0150,0.0000,0.0000,0.8757
14.0200,0.0000,0.0000,0.8862
14.0250,0.0000,0.0000,0.8502
14.0300,0.0000,0.0000,1.0546
14.0350,0.0000,0.0000,0.9190
14.0400,0.0000,0.0000,1.0438
14.0450,0.0000,0.0000,0.8713
14.0500,0.0000,0.0000,1.0095
14.0550,0.0000,0.0000,1.1099
14.0600,0.0000,0.0000,0.9119
14.0650,0.0000,0.0000,1.1820
14.0700,0.0000,0.0000,1.0497
14.0750,0.0000,0.0000,0.9471
14.0800,0.0000,0.0000,1.0036
14.0850,0.0000,0.0000,1.0372
14.0900,0.0000,0.0000,0.9425
14.0950,0.0000,0.0000,0.9739
14.1000,0.0000,0.0000,1.0763
14.1050,0.0000,0.0000,0.8128
14.1100,0.0000,0.0000,1.3438
14.1150,0.0000,0.0000,1.1506
14.1200,0.0000,0.0000,1.1961
14.1250,0.0000,0.0000,1.3224
14.1300,0.0000,0.0000,1.1345
14.1350,0.0000,0.0000,1.0421
14.1400,0.0000,0.0000,1.0325
14.1450,0.0000,0.0000,1.1149
14.1500,0.0000,0.0000,1.2206
14.1550,0.0000,0.0000,0.9423
14.1600,0.0000,0.0000,1.2627
14.1650,0.0000,0.0000,1.0042
14.1700,0.0000,0.0000,0.9183
14.1750,0.0000,0.0000,1.2097
14.1800,0.0000,0.0000,0.9836
14.1850,0.0000,0.0000,1.1342
14.1900,0.0000,0.0000,0.8835
14.1950,0.0000,0.0000,1.1335
14.2000,0.0000,0.0000,0.9876
14.2050,0.0000,0.0000,1.1905
14.2100,0.0000,0.0000,0.8553
14.2150,0.0000,0.0000,0.9619
14.2200,0.0000,0.0000,0.9266
14.2250,0.0000,0.0000,1.0731
14.2300,0.0000,0.0000,0.9243
14.2350,0.0000,0.0000,1.0040
14.2400,0.0000,0.0000,1.0429
14.2450,0.0000,0.0000,0.9926
14.2500,0.0000,0.0000,1.0641
14.2550,0.0000,0.0000,1.0795
14.2600,0.0000,0.0000,0.8500
14.2650,0.0000,0.0000,1.1703
14.2700,0.0000,0.0000,0.9108
14.2750,0.0000,0.0000,0.9489
14.2800,0.0000,0.0000,1.2536
14.2850,0.0000,0.0000,0.9610
14.2900,0.0000,0.0000,1.0259
14.2950,0.0000,0.0000,1.1305
14.3000,0.0000,0.0000,0.9642
14.3050,0.0000,0.0000,1.0281
14.3100,0.0000,0.0000,1.0081
14.3150,0.0000,0.0000,1.0203
14.3200,0.0000,0.0000,0.8994
14.3250,0.0000,0.0000,1.1694
14.3300,0.0000,0.0000,1.0455
14.3350,0.0000,0.0000,1.1157
14.3400,0.0000,0.0000,1.0466
14.3450,0.0000,0.0000,0.9685
14.3500,0.0000,0.0000,1.1817
14.3550,0.0000,0.0000,0.9508
14.3600,0.0000,0.0000,1.1600
14.3650,0.0000,0.0000,0.9514
14.3700,0.0000,0.0000,0.9539
14.3750,0.0000,0.0000,1.0526
14.3800,0.0000,0.0000,1.3236
14.3850,0.0000,0.0000,1.1519
14.3900,0.0000,0.0000,1.0552
14.3950,0.0000,0.0000,1.0939
14.4000,0.0000,0.0000,1.1810
14.4050,0.0000,0.0000,0.9838
14.4100,0.0000,0.0000,0.8100
14.4150,0.0000,0.0000,0.9133
14.4200,0.0000,0.0000,1.0340
14.4250,0.0000,0.0000,0.9518
14.4300,0.0000,0.0000,1.0077
14.4350,0.0000,0.0000,1.2153
14.4400,0.0000,0.0000,1.0072
14.4450,0.0000,0.0000,0.9656
14.4500,0.0000,0.0000,1.0433
14.4550,0.0000,0.0000,1.1859
14.4600,0.0000,0.0000,1.2444
14.4650,0.0000,0.0000,1.1215
14.4700,0.0000,0.0000,1.0044
14.4750,0.0000,0.0000,0.9844
14.4800,0.0000,0.0000,0.9005
14.4850,0.0000,0.0000,0.9642
14.4900,0.0000,0.0000,1.1488
14.4950,0.0000,0.0000,1.1082
14.5000,0.0000,0.0000,1.0749
14.5050,0.0000,0.0000,0.9125
14.5100,0.0000,0.0000,1.0273
14.5150,0.0000,0.0000,0.9530
14.5200,0.0000,0.0000,1.2176
14.5250,0.0000,0.0000,1.0371
14.5300,0.0000,0.0000,1.0220
14.5350,0.0000,0.0000,1.0320
14.5400,0.0000,0.0000,1.0333
14.5450,0.0000,0.0000,1.0439
14.5500,0.0000,0.0000,0.9680
14.5550,0.0000,0.0000,1.0652
14.5600,0.0000,0.0000,1.0405
14.5650,0.0000,0.0000,1.1390
14.5700,0.0000,0.0000,1.0965
14.5750,0.0000,0.0000,1.1131
14.5800,0.0000,0.0000,0.9711
14.5850,0.0000,0.0000,1.0337
14.5900,0.0000,0.0000,0.7629
14.5950,0.0000,0.0000,0.9260
14.6000,0.0000,0.0000,0.9806
14.6050,0.0000,0.0000,0.7408
14.6100,0.0000,0.0000,1.1704
14.6150,0.0000,0.0000,1.1446
14.6200,0.0000,0.0000,1.0488
14.6250,0.0000,0.0000,1.3125
14.6300,0.0000,0.0000,0.8401
14.6350,0.0000,0.0000,1.0368
14.6400,0.0000,0.0000,1.0418
14.6450,0.0000,0.0000,0.9679
14.6500,0.0000,0.0000,1.2073
14.6550,0.0000,0.0000,1.1595
14.6600,0.0000,0.0000,1.0837
14.6650,0.0000,0.0000,0.9133
14.6700,0.0000,0.0000,1.0554
14.6750,0.0000,0.0000,1.0328
14.6800,0.0000,0.0000,1.0867
14.6850,0.0000,0.0000,0.8524
14.6900,0.0000,0.0000,0.9010
14.6950,0.0000,0.0000,1.1560
14.7000,0.0000,0.0000,1.0319
14.7050,0.0000,0.0000,1.0130
14.7100,0.0000,0.0000,1.0167
14.7150,0.0000,0.0000,0.6941
14.7200,0.0000,0.0000,1.1948
14.7250,0.0000,0.0000,0.8423
14.7300,0.0000,0.0000,0.8720
14.7350,0.0000,0.0000,1.0843
14.7400,0.0000,0.0000,1.1840
14.7450,0.0000,0.0000,1.1630
14.7500,0.0000,0.0000,0.9571
14.7550,0.0000,0.0000,0.9190
14.7600,0.0000,0.0000,1.0936
14.7650,0.0000,0.0000,1.0445
14.7700,0.0000,0.0000,0.8006
14.7750,0.0000,0.0000,1.1771
14.7800,0.0000,0.0000,0.7835
14.7850,0.0000,0.0000,1.0625
14.7900,0.0000,0.0000,1.0545
14.7950,0.0000,0.0000,1.1035
14.8000,0.0000,0.0000,1.0268
14.8050,0.0000,0.0000,1.1164
14.8100,0.0000,0.0000,1.0497
14.8150,0.0000,0.0000,0.9066
14.8200,0.0000,0.0000,0.9393
14.8250,0.0000,0.0000,1.1804
14.8300,0.0000,0.0000,0.7830
14.8350,0.0000,0.0000,1.0964
14.8400,0.0000,0.0000,0.9391
14.8450,0.0000,0.0000,0.8007
14.8500,0.0000,0.0000,0.9060
14.8550,0.0000,0.0000,1.0665
14.8600,0.0000,0.0000,0.6732
14.8650,0.0000,0.0000,1.1178
14.8700,0.0000,0.0000,1.1580
14.8750,0.0000,0.0000,0.9582
14.8800,0.0000,0.0000,0.9648
14.8850,0.0000,0.0000,1.0127
14.8900,0.0000,0.0000,1.1136
14.8950,0.0000,0.0000,0.8816
14.9000,0.0000,0.0000,0.9475
14.9050,0.0000,0.0000,1.0471
14.9100,0.0000,0.0000,0.8231
14.9150,0.0000,0.0000,1.0424
14.9200,0.0000,0.0000,0.9965
14.9250,0.0000,0.0000,1.1006
14.9300,0.0000,0.0000,0.8665
14.9350,0.0000,0.0000,0.9961
14.9400,0.0000,0.0000,1.0488
14.9450,0.0000,0.0000,1.0071
14.9500,0.0000,0.0000,0.8720
14.9550,0.0000,0.0000,1.1383
14.9600,0.0000,0.0000,0.9880
14.9650,0.0000,0.0000,1.0178
14.9700,0.0000,0.0000,1.0061
14.9750,0.0000,0.0000,1.0814
14.9800,0.0000,0.0000,1.0096
14.9850,0.0000,0.0000,0.9155
14.9900,0.0000,0.0000,1.0993
14.9950,0.0000,0.0000,0.9887
15.0000,0.0000,0.0000,1.0100
15.0050,0.0000,0.0000,1.0208
15.0100,0.0000,0.0000,0.8548
15.0150,0.0000,0.0000,1.0063
15.0200,0.0000,0.0000,1.0327
15.0250,0.0000,0.0000,0.8227
15.0300,0.0000,0.0000,0.9590
15.0350,0.0000,0.0000,0.9861
15.0400,0.0000,0.0000,1.0775
15.0450,0.0000,0.0000,0.9558
15.0500,0.0000,0.0000,1.0025
15.0550,0.0000,0.0000,1.0686
15.0600,0.0000,0.0000,0.8453
15.0650,0.0000,0.0000,0.9021
15.0700,0.0000,0.0000,0.9563
15.0750,0.0000,0.0000,1.0777
15.0800,0.0000,0.0000,1.1532
15.0850,0.0000,0.0000,1.0031
15.0900,0.0000,0.0000,0.9771
15.0950,0.0000,0.0000,0.9322
15.1000,0.0000,0.0000,1.0020
15.1050,0.0000,0.0000,1.1901
15.1100,0.0000,0.0000,0.9736
15.1150,0.0000,0.0000,0.9262
15.1200,0.0000,0.0000,1.1788
15.1250,0.0000,0.0000,0.9739
15.1300,0.0000,0.0000,0.9652
15.1350,0.0000,0.0000,0.8843
15.1400,0.0000,0.0000,1.1137
15.1450,0.0000,0.0000,0.9594
15.1500,0.0000,0.0000,0.7631
15.1550,0.0000,0.0000,0.7268
15.1600,0.0000,0.0000,1.0230
15.1650,0.0000,0.0000,0.9204
15.1700,0.0000,0.0000,1.0405
15.1750,0.0000,0.0000,1.0438
15.1800,0.0000,0.0000,1.1659
15.1850,0.0000,0.0000,1.1533
15.1900,0.0000,0.0000,0.8509
15.1950,0.0000,0.0000,0.9457
15.2000,0.0000,0.0000,0.8861
15.2050,0.0000,0.0000,1.0843
15.2100,0.0000,0.0000,0.8027
15.2150,0.0000,0.0000,1.0546
15.2200,0.0000,0.0000,0.7719
15.2250,0.0000,0.0000,1.1013
15.2300,0.0000,0.0000,1.1160
15.2350,0.0000,0.0000,0.7796
15.2400,0.0000,0.0000,0.9781
15.2450,0.0000,0.0000,0.9039
15.2500,0.0000,0.0000,0.7748
15.2550,0.0000,0.0000,1.0857
15.2600,0.0000,0.0000,0.8795
15.2650,0.0000,0.0000,1.0988
15.2700,0.0000,0.0000,1.0295
15.2750,0.0000,0.0000,1.1926
15.2800,0.0000,0.0000,0.9178
15.2850,0.0000,0.0000,1.0728
15.2900,0.0000,0.0000,0.9953
15.2950,0.0000,0.0000,0.9263
15.3000,0.0000,0.0000,1.0993
15.3050,0.0000,0.0000,0.9782
15.3100,0.0000,0.0000,0.9172
15.3150,0.0000,0.0000,0.9920
15.3200,0.0000,0.0000,0.8114
15.3250,0.0000,0.0000,1.0999
15.3300,0.0000,0.0000,1.1724
15.3350,0.0000,0.0000,0.7891
15.3400,0.0000,0.0000,0.9832
15.3450,0.0000,0.0000,0.9245
15.3500,0.0000,0.0000,0.8825
15.3550,0.0000,0.0000,1.0668
15.3600,0.0000,0.0000,1.1744
15.3650,0.0000,0.0000,1.0050
15.3700,0.0000,0.0000,0.9309
15.3750,0.0000,0.0000,1.1730
15.3800,0.0000,0.0000,0.9246
15.3850,0.0000,0.0000,0.8824
15.3900,0.0000,0.0000,0.8947
15.3950,0.0000,0.0000,1.0759
15.4000,0.0000,0.0000,0.9720
15.4050,0.0000,0.0000,0.9826
15.4100,0.0000,0.0000,0.8890
15.4150,0.0000,0.0000,1.0056
15.4200,0.0000,0.0000,0.9584
15.4250,0.0000,0.0000,1.1750
15.4300,0.0000,0.0000,0.9579
15.4350,0.0000,0.0000,0.8401
15.4400,0.0000,0.0000,1.1644
15.4450,0.0000,0.0000,0.9944
15.4500,0.0000,0.0000,0.9579
15.4550,0.0000,0.0000,1.0172
15.4600,0.0000,0.0000,0.9660
15.4650,0.0000,0.0000,0.7010
15.4700,0.0000,0.0000,0.9556
15.4750,0.0000,0.0000,1.1115
15.4800,0.0000,0.0000,1.0713
15.4850,0.0000,0.0000,0.8661
15.4900,0.0000,0.0000,0.9194
15.4950,0.0000,0.0000,1.0167
15.5000,0.0000,0.0000,1.2088
15.5050,0.0000,0.0000,1.0030
15.5100,0.0000,0.0000,0.9877
15.5150,0.0000,0.0000,0.8884
15.5200,0.0000,0.0000,0.9106
15.5250,0.0000,0.0000,0.8961
15.5300,0.0000,0.0000,0.9559
15.5350,0.0000,0.0000,0.8411
15.5400,0.0000,0.0000,0.9082
15.5450,0.0000,0.0000,0.8172
15.5500,0.0000,0.0000,1.0923
15.5550,0.0000,0.0000,1.0337
15.5600,0.0000,0.0000,0.9356
15.5650,0.0000,0.0000,0.9258
15.5700,0.0000,0.0000,1.0487
15.5750,0.0000,0.0000,0.9775
15.5800,0.0000,0.0000,0.8976
15.5850,0.0000,0.0000,0.6308
15.5900,0.0000,0.0000,0.7308
15.5950,0.0000,0.0000,1.0328
15.6000,0.0000,0.0000,0.9312
15.6050,0.0000,0.0000,0.8617
15.6100,0.0000,0.0000,0.7358
15.6150,0.0000,0.0000,1.0315
15.6200,0.0000,0.0000,0.8123
15.6250,0.0000,0.0000,0.9694
15.6300,0.0000,0.0000,0.9417
15.6350,0.0000,0.0000,0.8866
15.6400,0.0000,0.0000,0.8125
15.6450,0.0000,0.0000,0.9893
15.6500,0.0000,0.0000,0.7850
15.6550,0.0000,0.0000,0.8769
15.6600,0.0000,0.0000,0.9347
15.6650,0.0000,0.0000,1.0873
15.6700,0.0000,0.0000,0.8980
15.6750,0.0000,0.0000,0.9659
15.6800,0.0000,0.0000,1.0217
15.6850,0.0000,0.0000,0.6564
15.6900,0.0000,0.0000,0.8370
15.6950,0.0000,0.0000,0.9064
15.7000,0.0000,0.0000,0.8617
15.7050,0.0000,0.0000,1.0479
15.7100,0.0000,0.0000,0.8858
15.7150,0.0000,0.0000,1.0208
15.7200,0.0000,0.0000,1.0598
15.7250,0.0000,0.0000,0.9146
15.7300,0.0000,0.0000,0.9915
15.7350,0.0000,0.0000,1.1221
15.7400,0.0000,0.0000,1.0628
15.7450,0.0000,0.0000,0.9544
15.7500,0.0000,0.0000,0.7446
15.7550,0.0000,0.0000,0.8678
15.7600,0.0000,0.0000,0.9376
15.7650,0.0000,0.0000,0.9875
15.7700,0.0000,0.0000,0.9683
15.7750,0.0000,0.0000,0.9466
15.7800,0.0000,0.0000,0.8251
15.7850,0.0000,0.0000,1.0207
15.7900,0.0000,0.0000,1.0624
15.7950,0.0000,0.0000,0.9412
15.8000,0.0000,0.0000,0.9552
15.8050,0.0000,0.0000,1.0482
15.8100,0.0000,0.0000,0.9024
15.8150,0.0000,0.0000,0.9975
15.8200,0.0000,0.0000,1.0663
15.8250,0.0000,0.0000,0.8651
15.8300,0.0000,0.0000,0.9404
15.8350,0.0000,0.0000,0.8539
15.8400,0.0000,0.0000,0.8173
15.8450,0.0000,0.0000,0.7208
15.8500,0.0000,0.0000,0.9866
15.8550,0.0000,0.0000,1.2476
15.8600,0.0000,0.0000,0.9086
15.8650,0.0000,0.0000,1.1364
15.8700,0.0000,0.0000,1.0753
15.8750,0.0000,0.0000,0.9023
15.8800,0.0000,0.0000,1.0596
15.8850,0.0000,0.0000,0.8999
15.8900,0.0000,0.0000,0.6986
15.8950,0.0000,0.0000,1.0555
15.9000,0.0000,0.0000,0.9186
15.9050,0.0000,0.0000,0.9267
15.9100,0.0000,0.0000,1.0380
15.9150,0.0000,0.0000,1.0706
15.9200,0.0000,0.0000,0.9286
15.9250,0.0000,0.0000,0.9857
15.9300,0.0000,0.0000,0.9928
15.9350,0.0000,0.0000,0.8529
15.9400,0.0000,0.0000,1.0454
15.9450,0.0000,0.0000,0.8861
15.9500,0.0000,0.0000,1.0023
15.9550,0.0000,0.0000,1.0664
15.9600,0.0000,0.0000,1.0717
15.9650,0.0000,0.0000,0.7209
15.9700,0.0000,0.0000,0.8673
15.9750,0.0000,0.0000,0.9167
15.9800,0.0000,0.0000,0.8597
15.9850,0.0000,0.0000,0.9358
15.9900,0.0000,0.0000,0.9428
15.9950,0.0000,0.0000,0.9634
16.0000,0.0000,0.0000,1.2293
16.0050,0.0000,0.0000,0.9847
16.0100,0.0000,0.0000,0.9625
16.0150,0.0000,0.0000,0.8637
16.0200,0.0000,0.0000,0.9272
16.0250,0.0000,0.0000,0.9302
16.0300,0.0000,0.0000,1.0317
16.0350,0.0000,0.0000,0.8080
16.0400,0.0000,0.0000,0.9301
16.0450,0.0000,0.0000,0.8290
16.0500,0.0000,0.0000,0.7517
16.0550,0.0000,0.0000,1.0424
16.0600,0.0000,0.0000,0.9345
16.0650,0.0000,0.0000,0.9985
16.0700,0.0000,0.0000,1.1556
16.0750,0.0000,0.0000,1.1325
16.0800,0.0000,0.0000,0.9477
16.0850,0.0000,0.0000,0.9984
16.0900,0.0000,0.0000,0.8978
16.0950,0.0000,0.0000,0.9307
16.1000,0.0000,0.0000,0.7710
16.1050,0.0000,0.0000,1.0485
16.1100,0.0000,0.0000,0.9696
16.1150,0.0000,0.0000,1.0818
16.1200,0.0000,0.0000,1.1774
16.1250,0.0000,0.0000,0.8571
16.1300,0.0000,0.0000,0.9798
16.1350,0.0000,0.0000,0.9338
16.1400,0.0000,0.0000,1.1097
16.1450,0.0000,0.0000,0.9322
16.1500,0.0000,0.0000,1.1643
16.1550,0.0000,0.0000,1.2421
16.1600,0.0000,0.0000,1.2080
16.1650,0.0000,0.0000,1.2020
16.1700,0.0000,0.0000,1.0072
16.1750,0.0000,0.0000,0.9694
16.1800,0.0000,0.0000,0.7983
16.1850,0.0000,0.0000,0.9885
16.1900,0.0000,0.0000,0.7707
16.1950,0.0000,0.0000,0.8481
16.2000,0.0000,0.0000,1.1115
16.2050,0.0000,0.0000,1.0831
16.2100,0.0000,0.0000,0.8336
16.2150,0.0000,0.0000,1.2317
16.2200,0.0000,0.0000,0.8335
16.2250,0.0000,0.0000,0.8325
16.2300,0.0000,0.0000,1.1425
16.2350,0.0000,0.0000,1.1601
16.2400,0.0000,0.0000,0.9438
16.2450,0.0000,0.0000,1.0439
16.2500,0.0000,0.0000,0.7808
16.2550,0.0000,0.0000,1.0653
16.2600,0.0000,0.0000,0.9056
16.2650,0.0000,0.0000,1.0872
16.2700,0.0000,0.0000,0.8943
16.2750,0.0000,0.0000,0.9112
16.2800,0.0000,0.0000,1.0568
16.2850,0.0000,0.0000,1.0501
16.2900,0.0000,0.0000,0.9255
16.2950,0.0000,0.0000,0.7920
16.3000,0.0000,0.0000,1.0096
16.3050,0.0000,0.0000,1.1392
16.3100,0.0000,0.0000,1.0654
16.3150,0.0000,0.0000,0.8089
16.3200,0.0000,0.0000,0.9840
16.3250,0.0000,0.0000,1.0022
16.3300,0.0000,0.0000,1.1583
16.3350,0.0000,0.0000,0.9538
16.3400,0.0000,0.0000,0.9422
16.3450,0.0000,0.0000,1.1668
16.3500,0.0000,0.0000,0.8237
16.3550,0.0000,0.0000,0.8905
16.3600,0.0000,0.0000,0.8600
16.3650,0.0000,0.0000,1.1112
16.3700,0.0000,0.0000,0.8861
16.3750,0.0000,0.0000,1.0535
16.3800,0.0000,0.0000,0.8860
16.3850,0.0000,0.0000,1.1497
16.3900,0.0000,0.0000,1.0387
16.3950,0.0000,0.0000,0.8988
16.4000,0.0000,0.0000,1.0575
16.4050,0.0000,0.0000,1.0177
16.4100,0.0000,0.0000,0.9810
16.4150,0.0000,0.0000,0.8647
16.4200,0.0000,0.0000,1.2082
16.4250,0.0000,0.0000,0.9934
16.4300,0.0000,0.0000,0.9373
16.4350,0.0000,0.0000,0.9968
16.4400,0.0000,0.0000,0.9768
16.4450,0.0000,0.0000,0.8369
16.4500,0.0000,0.0000,1.1113
16.4550,0.0000,0.0000,0.7944
16.4600,0.0000,0.0000,1.0918
16.4650,0.0000,0.0000,0.7594
16.4700,0.0000,0.0000,0.8190
16.4750,0.0000,0.0000,1.1277
16.4800,0.0000,0.0000,0.8085
16.4850,0.0000,0.0000,0.9886
16.4900,0.0000,0.0000,1.0181
16.4950,0.0000,0.0000,1.1487
16.5000,0.0000,0.0000,1.1976
16.5050,0.0000,0.0000,1.0915
16.5100,0.0000,0.0000,1.0532
16.5150,0.0000,0.0000,1.1262
16.5200,0.0000,0.0000,1.1094
16.5250,0.0000,0.0000,0.7986
16.5300,0.0000,0.0000,1.0650
16.5350,0.0000,0.0000,0.8881
16.5400,0.0000,0.0000,1.3032
16.5450,0.0000,0.0000,1.1376
16.5500,0.0000,0.0000,0.9074
16.5550,0.0000,0.0000,1.2152
16.5600,0.0000,0.0000,0.8808
16.5650,0.0000,0.0000,1.0599
16.5700,0.0000,0.0000,0.8454
16.5750,0.0000,0.0000,0.9523
16.5800,0.0000,0.0000,1.0216
16.5850,0.0000,0.0000,0.8355
16.5900,0.0000,0.0000,1.0661
16.5950,0.0000,0.0000,1.1217
16.6000,0.0000,0.0000,1.1890
16.6050,0.0000,0.0000,1.1256
16.6100,0.0000,0.0000,1.0459
16.6150,0.0000,0.0000,1.0972
16.6200,0.0000,0.0000,0.9031
16.6250,0.0000,0.0000,0.9371
16.6300,0.0000,0.0000,1.1643
16.6350,0.0000,0.0000,0.8660
16.6400,0.0000,0.0000,0.9344
16.6450,0.0000,0.0000,1.1082
16.6500,0.0000,0.0000,0.9877
16.6550,0.0000,0.0000,0.8558
16.6600,0.0000,0.0000,0.9281
16.6650,0.0000,0.0000,0.9177
16.6700,0.0000,0.0000,0.8546
16.6750,0.0000,0.0000,0.9330
16.6800,0.0000,0.0000,1.0915
16.6850,0.0000,0.0000,0.9359
16.6900,0.0000,0.0000,1.0282
16.6950,0.0000,0.0000,0.9235
16.7000,0.0000,0.0000,0.9812
16.7050,0.0000,0.0000,1.0880
16.7100,0.0000,0.0000,1.0525
16.7150,0.0000,0.0000,0.9813
16.7200,0.0000,0.0000,0.9734
16.7250,0.0000,0.0000,1.1367
16.7300,0.0000,0.0000,0.9623
16.7350,0.0000,0.0000,0.8353
16.7400,0.0000,0.0000,1.0931
16.7450,0.0000,0.0000,1.0900
16.7500,0.0000,0.0000,0.9954
16.7550,0.0000,0.0000,0.9428
16.7600,0.0000,0.0000,1.1699
16.7650,0.0000,0.0000,1.1643
16.7700,0.0000,0.0000,1.0585
16.7750,0.0000,0.0000,1.0102
16.7800,0.0000,0.0000,1.0976
16.7850,0.0000,0.0000,1.2217
16.7900,0.0000,0.0000,0.9378
16.7950,0.0000,0.0000,1.1156
16.8000,0.0000,0.0000,0.7680
16.8050,0.0000,0.0000,0.9488
16.8100,0.0000,0.0000,1.0895
16.8150,0.0000,0.0000,1.0336
16.8200,0.0000,0.0000,0.8738
16.8250,0.0000,0.0000,1.1141
16.8300,0.0000,0.0000,1.1012
16.8350,0.0000,0.0000,1.1107
16.8400,0.0000,0.0000,0.9761
16.8450,0.0000,0.0000,0.9981
16.8500,0.0000,0.0000,0.9960
16.8550,0.0000,0.0000,1.0544
16.8600,0.0000,0.0000,1.0330
16.8650,0.0000,0.0000,1.0087
16.8700,0.0000,0.0000,1.1079
16.8750,0.0000,0.0000,1.1584
16.8800,0.0000,0.0000,1.0392
16.8850,0.0000,0.0000,1.1757
16.8900,0.0000,0.0000,0.8218
16.8950,0.0000,0.0000,1.3284
16.9000,0.0000,0.0000,0.9195
16.9050,0.0000,0.0000,0.9750
16.9100,0.0000,0.0000,1.0803
16.9150,0.0000,0.0000,1.1471
16.9200,0.0000,0.0000,1.0508
16.9250,0.0000,0.0000,0.8350
16.9300,0.0000,0.0000,0.9838
16.9350,0.0000,0.0000,0.8853
16.9400,0.0000,0.0000,1.1358
16.9450,0.0000,0.0000,0.9766
16.9500,0.0000,0.0000,0.7391
16.9550,0.0000,0.0000,0.9388
16.9600,0.0000,0.0000,1.0601
16.9650,0.0000,0.0000,0.8950
16.9700,0.0000,0.0000,1.0850
16.9750,0.0000,0.0000,0.8297
16.9800,0.0000,0.0000,0.9950
16.9850,0.0000,0.0000,1.1450
16.9900,0.0000,0.0000,1.0339
16.9950,0.0000,0.0000,0.9130
17.0000,0.0000,0.0000,0.9414
17.0050,0.0000,0.0000,1.1499
17.0100,0.0000,0.0000,1.1131
17.0150,0.0000,0.0000,1.0735
17.0200,0.0000,0.0000,1.1213
17.0250,0.0000,0.0000,1.0237
17.0300,0.0000,0.0000,1.0361
17.0350,0.0000,0.0000,1.0199
17.0400,0.0000,0.0000,0.9814
17.0450,0.0000,0.0000,1.1679
17.0500,0.0000,0.0000,0.9222
17.0550,0.0000,0.0000,1.2988
17.0600,0.0000,0.0000,1.1311
17.0650,0.0000,0.0000,1.0078
17.0700,0.0000,0.0000,1.2100
17.0750,0.0000,0.0000,1.2398
17.0800,0.0000,0.0000,1.0754
17.0850,0.0000,0.0000,0.8960
17.0900,0.0000,0.0000,1.0515
17.0950,0.0000,0.0000,1.0422
17.1000,0.0000,0.0000,0.9679
17.1050,0.0000,0.0000,0.8677
17.1100,0.0000,0.0000,0.9315
17.1150,0.0000,0.0000,1.0603
17.1200,0.0000,0.0000,1.0191
17.1250,0.0000,0.0000,1.1521
17.1300,0.0000,0.0000,0.8945
17.1350,0.0000,0.0000,1.1198
17.1400,0.0000,0.0000,0.9454
17.1450,0.0000,0.0000,1.0951
17.1500,0.0000,0.0000,1.0672
17.1550,0.0000,0.0000,1.2140
17.1600,0.0000,0.0000,1.1107
17.1650,0.0000,0.0000,1.0107
17.1700,0.0000,0.0000,1.0645
17.1750,0.0000,0.0000,0.8696
17.1800,0.0000,0.0000,1.0486
17.1850,0.0000,0.0000,1.1058
17.1900,0.0000,0.0000,1.0768
17.1950,0.0000,0.0000,0.9837
17.2000,0.0000,0.0000,1.0806
17.2050,0.0000,0.0000,1.0779
17.2100,0.0000,0.0000,1.0888
17.2150,0.0000,0.0000,0.9353
17.2200,0.0000,0.0000,1.1406
17.2250,0.0000,0.0000,1.0441
17.2300,0.0000,0.0000,0.9084
17.2350,0.0000,0.0000,1.0277
17.2400,0.0000,0.0000,1.1843
17.2450,0.0000,0.0000,1.2306
17.2500,0.0000,0.0000,1.0127
17.2550,0.0000,0.0000,0.9543
17.2600,0.0000,0.0000,1.0065
17.2650,0.0000,0.0000,1.1288
17.2700,0.0000,0.0000,1.2085
17.2750,0.0000,0.0000,1.0677
17.2800,0.0000,0.0000,1.0192
17.2850,0.0000,0.0000,1.2204
17.2900,0.0000,0.0000,1.1015
17.2950,0.0000,0.0000,0.9565
17.3000,0.0000,0.0000,1.0209
17.3050,0.0000,0.0000,1.1582
17.3100,0.0000,0.0000,1.0101
17.3150,0.0000,0.0000,1.0526
17.3200,0.0000,0.0000,0.9672
17.3250,0.0000,0.0000,1.1137
17.3300,0.0000,0.0000,1.2217
17.3350,0.0000,0.0000,1.1937
17.3400,0.0000,0.0000,1.0017
17.3450,0.0000,0.0000,0.9169
17.3500,0.0000,0.0000,1.2213
17.3550,0.0000,0.0000,1.1342
17.3600,0.0000,0.0000,0.8680
17.3650,0.0000,0.0000,1.2186
17.3700,0.0000,0.0000,0.9949
17.3750,0.0000,0.0000,0.9777
17.3800,0.0000,0.0000,1.0508
17.3850,0.0000,0.0000,0.8882
17.3900,0.0000,0.0000,0.9186
17.3950,0.0000,0.0000,1.2184
17.4000,0.0000,0.0000,1.0170
17.4050,0.0000,0.0000,1.1078
17.4100,0.0000,0.0000,1.2086
17.4150,0.0000,0.0000,1.0939
17.4200,0.0000,0.0000,1.0391
17.4250,0.0000,0.0000,1.1191
17.4300,0.0000,0.0000,1.2471
17.4350,0.0000,0.0000,1.1107
17.4400,0.0000,0.0000,1.0064
17.4450,0.0000,0.0000,1.2833
17.4500,0.0000,0.0000,1.2233
17.4550,0.0000,0.0000,0.9121
17.4600,0.0000,0.0000,1.0962
17.4650,0.0000,0.0000,1.3335
17.4700,0.0000,0.0000,0.8836
17.4750,0.0000,0.0000,0.8877
17.4800,0.0000,0.0000,1.1379
17.4850,0.0000,0.0000,0.9926
17.4900,0.0000,0.0000,0.8689
17.4950,0.0000,0.0000,1.2306
17.5000,0.0000,0.0000,1.0363
17.5050,0.0000,0.0000,1.1031
17.5100,0.0000,0.0000,1.1986
17.5150,0.0000,0.0000,1.0862
17.5200,0.0000,0.0000,0.9482
17.5250,0.0000,0.0000,1.3218
17.5300,0.0000,0.0000,1.1705
17.5350,0.0000,0.0000,1.0578
17.5400,0.0000,0.0000,1.0110
17.5450,0.0000,0.0000,0.8904
17.5500,0.0000,0.0000,1.1366
17.5550,0.0000,0.0000,0.8991
17.5600,0.0000,0.0000,1.2687
17.5650,0.0000,0.0000,0.8236
17.5700,0.0000,0.0000,1.1552
17.5750,0.0000,0.0000,0.9253
17.5800,0.0000,0.0000,0.9308
17.5850,0.0000,0.0000,1.1371
17.5900,0.0000,0.0000,1.0665
17.5950,0.0000,0.0000,1.1396
17.6000,0.0000,0.0000,0.9212
17.6050,0.0000,0.0000,1.0333
17.6100,0.0000,0.0000,1.0103
17.6150,0.0000,0.0000,1.0816
17.6200,0.0000,0.0000,1.1558
17.6250,0.0000,0.0000,1.0358
17.6300,0.0000,0.0000,0.9383
17.6350,0.0000,0.0000,1.0623
17.6400,0.0000,0.0000,0.8520
17.6450,0.0000,0.0000,0.9767
17.6500,0.0000,0.0000,1.1990
17.6550,0.0000,0.0000,0.9860
17.6600,0.0000,0.0000,1.1537
17.6650,0.0000,0.0000,1.0038
17.6700,0.0000,0.0000,0.9400
17.6750,0.0000,0.0000,1.0657
17.6800,0.0000,0.0000,1.1087
17.6850,0.0000,0.0000,1.0335
17.6900,0.0000,0.0000,1.0789
17.6950,0.0000,0.0000,1.2492
17.7000,0.0000,0.0000,1.0497
17.7050,0.0000,0.0000,1.0904
17.7100,0.0000,0.0000,0.9553
17.7150,0.0000,0.0000,1.1445
17.7200,0.0000,0.0000,0.9619
17.7250,0.0000,0.0000,1.0701
17.7300,0.0000,0.0000,0.9884
17.7350,0.0000,0.0000,1.1259
17.7400,0.0000,0.0000,1.1095
17.7450,0.0000,0.0000,1.1720
17.7500,0.0000,0.0000,1.0554
17.7550,0.0000,0.0000,1.1219
17.7600,0.0000,0.0000,1.2701
17.7650,0.0000,0.0000,0.9362
17.7700,0.0000,0.0000,0.9364
17.7750,0.0000,0.0000,1.1444
17.7800,0.0000,0.0000,1.0625
17.7850,0.0000,0.0000,1.0565
17.7900,0.0000,0.0000,0.7546
17.7950,0.0000,0.0000,1.0185
17.8000,0.0000,0.0000,1.1586
17.8050,0.0000,0.0000,1.1046
17.8100,0.0000,0.0000,1.0464
17.8150,0.0000,0.0000,1.0246
17.8200,0.0000,0.0000,0.9612
17.8250,0.0000,0.0000,0.9925
17.8300,0.0000,0.0000,1.0465
17.8350,0.0000,0.0000,0.8171
17.8400,0.0000,0.0000,1.1950
17.8450,0.0000,0.0000,0.8994
17.8500,0.0000,0.0000,1.1894
17.8550,0.0000,0.0000,1.1307
17.8600,0.0000,0.0000,0.9444
17.8650,0.0000,0.0000,1.0015
17.8700,0.0000,0.0000,1.0795
17.8750,0.0000,0.0000,1.1673
17.8800,0.0000,0.0000,0.9294
17.8850,0.0000,0.0000,1.0949
17.8900,0.0000,0.0000,1.1202
17.8950,0.0000,0.0000,1.0116
17.9000,0.0000,0.0000,1.0779
17.9050,0.0000,0.0000,0.9832
17.9100,0.0000,0.0000,0.9879
17.9150,0.0000,0.0000,0.9148
17.9200,0.0000,0.0000,0.9276
17.9250,0.0000,0.0000,1.1192
17.9300,0.0000,0.0000,1.0912
17.9350,0.0000,0.0000,1.0969
17.9400,0.0000,0.0000,0.9671
17.9450,0.0000,0.0000,1.0746
17.9500,0.0000,0.0000,1.1367
17.9550,0.0000,0.0000,0.8808
17.9600,0.0000,0.0000,0.9051
17.9650,0.0000,0.0000,0.8977
17.9700,0.0000,0.0000,1.0407
17.9750,0.0000,0.0000,1.0461
17.9800,0.0000,0.0000,1.2494
17.9850,0.0000,0.0000,1.1498
17.9900,0.0000,0.0000,0.7078
17.9950,0.0000,0.0000,1.0550
18.0000,0.0000,0.0000,0.9763
18.0050,0.0000,0.0000,1.1348
18.0100,0.0000,0.0000,0.8906
18.0150,0.0000,0.0000,0.8411
18.0200,0.0000,0.0000,0.9040
18.0250,0.0000,0.0000,1.0880
18.0300,0.0000,0.0000,0.9725
18.0350,0.0000,0.0000,1.0964
18.0400,0.0000,0.0000,1.2426
18.0450,0.0000,0.0000,0.8811
18.0500,0.0000,0.0000,0.9649
18.0550,0.0000,0.0000,1.0506
18.0600,0.0000,0.0000,1.1167
18.0650,0.0000,0.0000,0.9268
18.0700,0.0000,0.0000,1.0216
18.0750,0.0000,0.0000,0.8988
18.0800,0.0000,0.0000,1.1968
18.0850,0.0000,0.0000,1.1188
18.0900,0.0000,0.0000,1.2443
18.0950,0.0000,0.0000,1.1960
18.1000,0.0000,0.0000,1.0746
18.1050,0.0000,0.0000,1.1169
18.1100,0.0000,0.0000,1.1049
18.1150,0.0000,0.0000,1.0219
18.1200,0.0000,0.0000,0.9886
18.1250,0.0000,0.0000,0.9765
18.1300,0.0000,0.0000,1.0508
18.1350,0.0000,0.0000,1.0461
18.1400,0.0000,0.0000,1.1616
18.1450,0.0000,0.0000,1.0297
18.1500,0.0000,0.0000,1.0477
18.1550,0.0000,0.0000,1.2147
18.1600,0.0000,0.0000,0.9543
18.1650,0.0000,0.0000,0.8874
18.1700,0.0000,0.0000,1.3011
18.1750,0.0000,0.0000,0.8761
18.1800,0.0000,0.0000,0.9410
18.1850,0.0000,0.0000,1.2076
18.1900,0.0000,0.0000,0.9867
18.1950,0.0000,0.0000,0.9404
18.2000,0.0000,0.0000,1.0194
18.2050,0.0000,0.0000,0.9805
18.2100,0.0000,0.0000,0.8905
18.2150,0.0000,0.0000,0.7801
18.2200,0.0000,0.0000,0.9026
18.2250,0.0000,0.0000,0.8592
18.2300,0.0000,0.0000,0.9429
18.2350,0.0000,0.0000,0.9054
18.2400,0.0000,0.0000,1.0985
18.2450,0.0000,0.0000,1.0832
18.2500,0.0000,0.0000,0.9253
18.2550,0.0000,0.0000,1.2108
18.2600,0.0000,0.0000,1.2372
18.2650,0.0000,0.0000,0.7890
18.2700,0.0000,0.0000,0.8795
18.2750,0.0000,0.0000,1.2260
18.2800,0.0000,0.0000,1.0250
18.2850,0.0000,0.0000,0.9906
18.2900,0.0000,0.0000,0.9527
18.2950,0.0000,0.0000,0.9879
18.3000,0.0000,0.0000,1.1170
18.3050,0.0000,0.0000,1.0650
18.3100,0.0000,0.0000,0.9814
18.3150,0.0000,0.0000,0.9293
18.3200,0.0000,0.0000,0.9414
18.3250,0.0000,0.0000,1.1251
18.3300,0.0000,0.0000,0.9411
18.3350,0.0000,0.0000,0.9828
18.3400,0.0000,0.0000,1.0086
18.3450,0.0000,0.0000,1.0165
18.3500,0.0000,0.0000,0.8436
18.3550,0.0000,0.0000,1.3189
18.3600,0.0000,0.0000,1.0761
18.3650,0.0000,0.0000,1.1823
18.3700,0.0000,0.0000,0.8547
18.3750,0.0000,0.0000,0.8050
18.3800,0.0000,0.0000,1.0098
18.3850,0.0000,0.0000,0.9547
18.3900,0.0000,0.0000,0.8855
18.3950,0.0000,0.0000,1.1935
18.4000,0.0000,0.0000,0.8502
18.4050,0.0000,0.0000,0.8061
18.4100,0.0000,0.0000,1.2174
18.4150,0.0000,0.0000,1.0384
18.4200,0.0000,0.0000,0.8242
18.4250,0.0000,0.0000,1.1199
18.4300,0.0000,0.0000,0.8934
18.4350,0.0000,0.0000,0.9344
18.4400,0.0000,0.0000,0.9631
18.4450,0.0000,0.0000,0.9852
18.4500,0.0000,0.0000,1.2135
18.4550,0.0000,0.0000,0.8924
18.4600,0.0000,0.0000,0.8853
18.4650,0.0000,0.0000,0.8484
18.4700,0.0000,0.0000,0.9760
18.4750,0.0000,0.0000,0.8582
18.4800,0.0000,0.0000,0.9940
18.4850,0.0000,0.0000,1.1594
18.4900,0.0000,0.0000,1.2258
18.4950,0.0000,0.0000,0.9605
18.5000,0.0000,0.0000,1.0059
18.5050,0.0000,0.0000,0.9154
18.5100,0.0000,0.0000,0.9470
18.5150,0.0000,0.0000,1.0734
18.5200,0.0000,0.0000,0.7456
18.5250,0.0000,0.0000,0.8809
18.5300,0.0000,0.0000,0.8665
18.5350,0.0000,0.0000,0.8721
18.5400,0.0000,0.0000,0.9141
18.5450,0.0000,0.0000,1.0136
18.5500,0.0000,0.0000,0.9480
18.5550,0.0000,0.0000,1.3190
18.5600,0.0000,0.0000,1.1253
18.5650,0.0000,0.0000,0.8835
18.5700,0.0000,0.0000,0.9452
18.5750,0.0000,0.0000,0.8989
18.5800,0.0000,0.0000,1.0041
18.5850,0.0000,0.0000,0.9810
18.5900,0.0000,0.0000,1.0571
18.5950,0.0000,0.0000,0.9854
18.6000,0.0000,0.0000,1.1323
18.6050,0.0000,0.0000,0.9569
18.6100,0.0000,0.0000,0.9849
18.6150,0.0000,0.0000,1.0263
18.6200,0.0000,0.0000,0.9937
18.6250,0.0000,0.0000,0.9760
18.6300,0.0000,0.0000,1.0451
18.6350,0.0000,0.0000,1.0548
18.6400,0.0000,0.0000,1.0209
18.6450,0.0000,0.0000,1.0441
18.6500,0.0000,0.0000,0.9275
18.6550,0.0000,0.0000,0.9270
18.6600,0.0000,0.0000,1.1068
18.6650,0.0000,0.0000,1.1263
18.6700,0.0000,0.0000,0.9381
18.6750,0.0000,0.0000,1.1359
18.6800,0.0000,0.0000,0.9292
18.6850,0.0000,0.0000,1.1502
18.6900,0.0000,0.0000,1.0640
18.6950,0.0000,0.0000,0.9744
18.7000,0.0000,0.0000,1.0338
18.7050,0.0000,0.0000,0.8926
18.7100,0.0000,0.0000,0.9134
18.7150,0.0000,0.0000,0.9045
18.7200,0.0000,0.0000,1.0655
18.7250,0.0000,0.0000,1.0448
18.7300,0.0000,0.0000,0.9351
18.7350,0.0000,0.0000,0.9741
18.7400,0.0000,0.0000,0.8414
18.7450,0.0000,0.0000,0.9428
18.7500,0.0000,0.0000,0.8366
18.7550,0.0000,0.0000,1.1209
18.7600,0.0000,0.0000,1.0577
18.7650,0.0000,0.0000,0.8844
18.7700,0.0000,0.0000,0.8941
18.7750,0.0000,0.0000,1.1569
18.7800,0.0000,0.0000,0.9704
18.7850,0.0000,0.0000,0.8188
18.7900,0.0000,0.0000,0.8793
18.7950,0.0000,0.0000,0.8898
18.8000,0.0000,0.0000,0.9366
18.8050,0.0000,0.0000,0.8055
18.8100,0.0000,0.0000,1.0250
18.8150,0.0000,0.0000,0.8820
18.8200,0.0000,0.0000,1.1799
18.8250,0.0000,0.0000,1.0578
18.8300,0.0000,0.0000,0.7745
18.8350,0.0000,0.0000,0.8486
18.8400,0.0000,0.0000,0.9546
18.8450,0.0000,0.0000,0.7528
18.8500,0.0000,0.0000,0.8049
18.8550,0.0000,0.0000,1.1427
18.8600,0.0000,0.0000,0.8671
18.8650,0.0000,0.0000,0.8755
18.8700,0.0000,0.0000,0.9841
18.8750,0.0000,0.0000,1.0041
18.8800,0.0000,0.0000,0.9701
18.8850,0.0000,0.0000,1.0615
18.8900,0.0000,0.0000,0.8754
18.8950,0.0000,0.0000,1.1024
18.9000,0.0000,0.0000,1.1058
18.9050,0.0000,0.0000,0.9175
18.9100,0.0000,0.0000,0.9469
18.9150,0.0000,0.0000,0.9406
18.9200,0.0000,0.0000,0.9060
18.9250,0.0000,0.0000,0.8152
18.9300,0.0000,0.0000,0.9741
18.9350,0.0000,0.0000,0.8451
18.9400,0.0000,0.0000,0.8657
18.9450,0.0000,0.0000,0.8414
18.9500,0.0000,0.0000,0.9792
18.9550,0.0000,0.0000,0.8283
18.9600,0.0000,0.0000,1.0635
18.9650,0.0000,0.0000,0.7380
18.9700,0.0000,0.0000,0.8142
18.9750,0.0000,0.0000,0.9273
18.9800,0.0000,0.0000,0.9133
18.9850,0.0000,0.0000,0.8132
18.9900,0.0000,0.0000,1.2277
18.9950,0.0000,0.0000,0.9003
19.0000,0.0000,0.0000,0.7694
19.0050,0.0000,0.0000,0.9550
19.0100,0.0000,0.0000,1.1568
19.0150,0.0000,0.0000,1.1124
19.0200,0.0000,0.0000,0.9317
19.0250,0.0000,0.0000,0.9331
19.0300,0.0000,0.0000,1.1831
19.0350,0.0000,0.0000,0.9664
19.0400,0.0000,0.0000,0.9842
19.0450,0.0000,0.0000,0.7883
19.0500,0.0000,0.0000,0.8772
19.0550,0.0000,0.0000,1.0016
19.0600,0.0000,0.0000,0.6907
19.0650,0.0000,0.0000,0.9777
19.0700,0.0000,0.0000,0.9262
19.0750,0.0000,0.0000,0.9244
19.0800,0.0000,0.0000,0.9643
19.0850,0.0000,0.0000,0.9993
19.0900,0.0000,0.0000,1.1045
19.0950,0.0000,0.0000,0.7763
19.1000,0.0000,0.0000,1.0642
19.1050,0.0000,0.0000,0.8932
19.1100,0.0000,0.0000,0.9331
19.1150,0.0000,0.0000,0.9893
19.1200,0.0000,0.0000,0.9467
19.1250,0.0000,0.0000,1.0603
19.1300,0.0000,0.0000,0.8664
19.1350,0.0000,0.0000,1.0202
19.1400,0.0000,0.0000,0.9175
19.1450,0.0000,0.0000,0.7150
19.1500,0.0000,0.0000,0.7895
19.1550,0.0000,0.0000,1.1023
19.1600,0.0000,0.0000,0.9253
19.1650,0.0000,0.0000,1.0411
19.1700,0.0000,0.0000,0.9650
19.1750,0.0000,0.0000,0.9003
19.1800,0.0000,0.0000,1.2846
19.1850,0.0000,0.0000,1.1213
19.1900,0.0000,0.0000,0.8289
19.1950,0.0000,0.0000,0.9723
19.2000,0.0000,0.0000,0.9848
19.2050,0.0000,0.0000,0.7001
19.2100,0.0000,0.0000,0.8006
19.2150,0.0000,0.0000,1.1079
19.2200,0.0000,0.0000,1.1235
19.2250,0.0000,0.0000,1.1325
19.2300,0.0000,0.0000,0.8489
19.2350,0.0000,0.0000,1.0115
19.2400,0.0000,0.0000,0.9955
19.2450,0.0000,0.0000,0.9548
19.2500,0.0000,0.0000,0.9047
19.2550,0.0000,0.0000,0.9883
19.2600,0.0000,0.0000,0.7351
19.2650,0.0000,0.0000,0.6082
19.2700,0.0000,0.0000,0.9022
19.2750,0.0000,0.0000,1.1458
19.2800,0.0000,0.0000,0.8075
19.2850,0.0000,0.0000,0.8669
19.2900,0.0000,0.0000,0.9748
19.2950,0.0000,0.0000,0.8153
19.3000,0.0000,0.0000,0.9851
19.3050,0.0000,0.0000,0.8895
19.3100,0.0000,0.0000,0.8908
19.3150,0.0000,0.0000,0.8179
19.3200,0.0000,0.0000,0.9799
19.3250,0.0000,0.0000,1.0341
19.3300,0.0000,0.0000,1.1140
19.3350,0.0000,0.0000,0.8976
19.3400,0.0000,0.0000,0.8112
19.3450,0.0000,0.0000,0.9555
19.3500,0.0000,0.0000,1.0519
19.3550,0.0000,0.0000,0.8149
19.3600,0.0000,0.0000,1.0031
19.3650,0.0000,0.0000,1.2323
19.3700,0.0000,0.0000,1.0757
19.3750,0.0000,0.0000,0.7840
19.3800,0.0000,0.0000,0.9089
19.3850,0.0000,0.0000,0.7806
19.3900,0.0000,0.0000,0.8071
19.3950,0.0000,0.0000,1.2501
19.4000,0.0000,0.0000,0.9380
19.4050,0.0000,0.0000,0.8852
19.4100,0.0000,0.0000,1.0017
19.4150,0.0000,0.0000,0.8376
19.4200,0.0000,0.0000,1.1860
19.4250,0.0000,0.0000,1.0485
19.4300,0.0000,0.0000,0.9752
19.4350,0.0000,0.0000,1.0802
19.4400,0.0000,0.0000,1.0773
19.4450,0.0000,0.0000,1.0384
19.4500,0.0000,0.0000,0.7405
19.4550,0.0000,0.0000,0.9042
19.4600,0.0000,0.0000,1.1967
19.4650,0.0000,0.0000,0.8858
19.4700,0.0000,0.0000,0.8988
19.4750,0.0000,0.0000,0.8520
19.4800,0.0000,0.0000,1.0386
19.4850,0.0000,0.0000,0.9263
19.4900,0.0000,0.0000,0.8966
19.4950,0.0000,0.0000,1.1009
19.5000,0.0000,0.0000,0.8547
19.5050,0.0000,0.0000,1.0745
19.5100,0.0000,0.0000,1.0269
19.5150,0.0000,0.0000,1.0207
19.5200,0.0000,0.0000,1.0869
19.5250,0.0000,0.0000,0.9774
19.5300,0.0000,0.0000,0.9750
19.5350,0.0000,0.0000,1.1817
19.5400,0.0000,0.0000,0.9591
19.5450,0.0000,0.0000,1.0404
19.5500,0.0000,0.0000,0.9462
19.5550,0.0000,0.0000,0.8857
19.5600,0.0000,0.0000,1.0412
19.5650,0.0000,0.0000,0.8384
19.5700,0.0000,0.0000,1.0793
19.5750,0.0000,0.0000,1.1105
19.5800,0.0000,0.0000,1.0673
19.5850,0.0000,0.0000,0.9630
19.5900,0.0000,0.0000,0.8232
19.5950,0.0000,0.0000,0.9142
19.6000,0.0000,0.0000,1.3039
19.6050,0.0000,0.0000,0.8571
19.6100,0.0000,0.0000,1.0755
19.6150,0.0000,0.0000,1.0111
19.6200,0.0000,0.0000,1.0113
19.6250,0.0000,0.0000,0.8506
19.6300,0.0000,0.0000,0.8131
19.6350,0.0000,0.0000,0.9590
19.6400,0.0000,0.0000,1.0019
19.6450,0.0000,0.0000,0.9715
19.6500,0.0000,0.0000,1.0655
19.6550,0.0000,0.0000,0.8971
19.6600,0.0000,0.0000,0.8260
19.6650,0.0000,0.0000,1.0233
19.6700,0.0000,0.0000,0.9732
19.6750,0.0000,0.0000,0.7181
19.6800,0.0000,0.0000,1.1184
19.6850,0.0000,0.0000,1.0570
19.6900,0.0000,0.0000,1.1231
19.6950,0.0000,0.0000,0.9763
19.7000,0.0000,0.0000,1.0283
19.7050,0.0000,0.0000,0.8483
19.7100,0.0000,0.0000,0.8137
19.7150,0.0000,0.0000,1.1479
19.7200,0.0000,0.0000,0.8813
19.7250,0.0000,0.0000,0.7258
19.7300,0.0000,0.0000,0.8760
19.7350,0.0000,0.0000,0.9495
19.7400,0.0000,0.0000,0.9278
19.7450,0.0000,0.0000,0.8469
19.7500,0.0000,0.0000,1.0405
19.7550,0.0000,0.0000,0.9782
19.7600,0.0000,0.0000,1.1452
19.7650,0.0000,0.0000,0.9345
19.7700,0.0000,0.0000,1.1752
19.7750,0.0000,0.0000,1.0205
19.7800,0.0000,0.0000,0.9815
19.7850,0.0000,0.0000,0.9430
19.7900,0.0000,0.0000,1.0547
19.7950,0.0000,0.0000,0.9762
19.8000,0.0000,0.0000,0.7925
19.8050,0.0000,0.0000,0.9736
19.8100,0.0000,0.0000,0.8718
19.8150,0.0000,0.0000,0.9910
19.8200,0.0000,0.0000,0.8156
19.8250,0.0000,0.0000,1.0075
19.8300,0.0000,0.0000,1.2208
19.8350,0.0000,0.0000,0.9118
19.8400,0.0000,0.0000,1.2016
19.8450,0.0000,0.0000,0.9709
19.8500,0.0000,0.0000,0.8748
19.8550,0.0000,0.0000,1.0025
19.8600,0.0000,0.0000,1.2156
19.8650,0.0000,0.0000,0.8423
19.8700,0.0000,0.0000,0.9211
19.8750,0.0000,0.0000,1.1881
19.8800,0.0000,0.0000,0.9653
19.8850,0.0000,0.0000,1.0222
19.8900,0.0000,0.0000,0.7366
19.8950,0.0000,0.0000,1.0344
19.9000,0.0000,0.0000,0.7753
19.9050,0.0000,0.0000,0.9445
19.9100,0.0000,0.0000,1.1082
19.9150,0.0000,0.0000,0.8121
19.9200,0.0000,0.0000,0.9138
19.9250,0.0000,0.0000,1.2448
19.9300,0.0000,0.0000,1.1160
19.9350,0.0000,0.0000,1.0663
19.9400,0.0000,0.0000,2.7624
19.9450,0.0000,0.0000,2.7198
19.9500,0.0000,0.0000,2.8271
19.9550,0.0000,0.0000,2.5176
19.9600,0.0000,0.0000,2.8159
19.9650,0.0000,0.0000,2.6555
19.9700,0.0000,0.0000,2.5916
19.9750,0.0000,0.0000,2.6544
19.9800,0.0000,0.0000,2.4037
19.9850,0.0000,0.0000,2.6890
19.9900,0.0000,0.0000,2.5387
19.9950,0.0000,0.0000,2.8642
20.0000,0.0000,0.0000,0.0076
20.0050,0.0000,0.0000,0.0175
20.0100,0.0000,0.0000,0.0290
20.0150,0.0000,0.0000,0.0733
20.0200,0.0000,0.0000,0.1470
20.0250,0.0000,0.0000,0.0045
20.0300,0.0000,0.0000,0.0128
20.0350,0.0000,0.0000,0.0932
20.0400,0.0000,0.0000,0.0337
20.0450,0.0000,0.0000,0.0109
20.0500,0.0000,0.0000,0.0731
20.0550,0.0000,0.0000,0.0283
20.0600,0.0000,0.0000,0.0444
20.0650,0.0000,0.0000,0.0145
20.0700,0.0000,0.0000,0.0058
20.0750,0.0000,0.0000,0.0237
20.0800,0.0000,0.0000,0.0082
20.0850,0.0000,0.0000,0.0453
20.0900,0.0000,0.0000,0.0431
20.0950,0.0000,0.0000,0.0497
20.1000,0.0000,0.0000,0.0160
20.1050,0.0000,0.0000,0.0100
20.1100,0.0000,0.0000,0.0139
20.1150,0.0000,0.0000,0.0510
20.1200,0.0000,0.0000,0.0800
20.1250,0.0000,0.0000,0.0615
20.1300,0.0000,0.0000,0.0312
20.1350,0.0000,0.0000,0.0853
20.1400,0.0000,0.0000,0.0766
20.1450,0.0000,0.0000,0.0944
20.1500,0.0000,0.0000,0.0828
20.1550,0.0000,0.0000,0.0580
20.1600,0.0000,0.0000,0.0461
20.1650,0.0000,0.0000,0.0028
20.1700,0.0000,0.0000,0.0648
20.1750,0.0000,0.0000,0.0309
20.1800,0.0000,0.0000,0.0226
20.1850,0.0000,0.0000,0.0338
20.1900,0.0000,0.0000,0.0161
20.1950,0.0000,0.0000,0.0501
20.2000,0.0000,0.0000,0.0750
20.2050,0.0000,0.0000,0.0086
20.2100,0.0000,0.0000,0.0463
20.2150,0.0000,0.0000,0.0291
20.2200,0.0000,0.0000,0.0520
20.2250,0.0000,0.0000,0.0351
20.2300,0.0000,0.0000,0.0701
20.2350,0.0000,0.0000,0.0120
20.2400,0.0000,0.0000,0.0320
20.2450,0.0000,0.0000,0.0799
20.2500,0.0000,0.0000,0.0718
20.2550,0.0000,0.0000,0.0089
20.2600,0.0000,0.0000,0.0710
20.2650,0.0000,0.0000,0.0087
20.2700,0.0000,0.0000,0.0148
20.2750,0.0000,0.0000,0.0633
20.2800,0.0000,0.0000,0.0507
20.2850,0.0000,0.0000,0.0081
20.2900,0.0000,0.0000,0.0190
20.2950,0.0000,0.0000,0.1216
20.3000,0.0000,0.0000,0.0061
20.3050,0.0000,0.0000,0.0465
20.3100,0.0000,0.0000,0.0147
20.3150,0.0000,0.0000,0.0097
20.3200,0.0000,0.0000,0.0749
20.3250,0.0000,0.0000,0.0577
20.3300,0.0000,0.0000,0.0097
20.3350,0.0000,0.0000,0.0751
20.3400,0.0000,0.0000,0.0453
20.3450,0.0000,0.0000,0.0055
20.3500,0.0000,0.0000,0.0756
20.3550,0.0000,0.0000,0.0231
20.3600,0.0000,0.0000,0.0571
20.3650,0.0000,0.0000,0.0057
20.3700,0.0000,0.0000,0.0016
20.3750,0.0000,0.0000,0.0613
20.3800,0.0000,0.0000,0.0346
20.3850,0.0000,0.0000,0.1244
20.3900,0.0000,0.0000,0.0446
20.3950,0.0000,0.0000,0.0138
20.4000,0.0000,0.0000,0.0407
20.4050,0.0000,0.0000,0.0134
20.4100,0.0000,0.0000,0.0414
20.4150,0.0000,0.0000,0.0628
20.4200,0.0000,0.0000,0.0275
20.4250,0.0000,0.0000,0.0034
20.4300,0.0000,0.0000,0.0182
20.4350,0.0000,0.0000,0.0393
20.4400,0.0000,0.0000,0.0229
20.4450,0.0000,0.0000,0.0060
20.4500,0.0000,0.0000,0.0165
20.4550,0.0000,0.0000,0.0132
20.4600,0.0000,0.0000,0.0686
20.4650,0.0000,0.0000,0.0417
20.4700,0.0000,0.0000,0.0236
20.4750,0.0000,0.0000,0.0298
20.4800,0.0000,0.0000,0.0068
20.4850,0.0000,0.0000,0.0034
20.4900,0.0000,0.0000,0.0064
20.4950,0.0000,0.0000,0.0575
20.5000,0.0000,0.0000,0.0511
20.5050,0.0000,0.0000,0.0087
20.5100,0.0000,0.0000,0.0059
20.5150,0.0000,0.0000,0.0707
20.5200,0.0000,0.0000,0.0618
20.5250,0.0000,0.0000,0.0284
20.5300,0.0000,0.0000,0.0353
20.5350,0.0000,0.0000,0.1063
20.5400,0.0000,0.0000,0.0538
20.5450,0.0000,0.0000,0.0294
20.5500,0.0000,0.0000,0.0668
20.5550,0.0000,0.0000,0.0735
20.5600,0.0000,0.0000,0.0500
20.5650,0.0000,0.0000,0.0908
20.5700,0.0000,0.0000,0.0494
20.5750,0.0000,0.0000,0.0072
20.5800,0.0000,0.0000,0.0628
20.5850,0.0000,0.0000,0.0327
20.5900,0.0000,0.0000,0.0694
20.5950,0.0000,0.0000,0.0308
20.6000,0.0000,0.0000,0.0448
20.6050,0.0000,0.0000,0.0695
20.6100,0.0000,0.0000,0.0779
20.6150,0.0000,0.0000,0.0118
20.6200,0.0000,0.0000,0.0288
20.6250,0.0000,0.0000,0.0117
20.6300,0.0000,0.0000,0.0535
20.6350,0.0000,0.0000,0.0430
20.6400,0.0000,0.0000,0.0504
20.6450,0.0000,0.0000,0.0747
20.6500,0.0000,0.0000,0.0121
20.6550,0.0000,0.0000,0.0133
20.6600,0.0000,0.0000,0.0404
20.6650,0.0000,0.0000,0.1082
20.6700,0.0000,0.0000,0.0079
20.6750,0.0000,0.0000,0.1249
20.6800,0.0000,0.0000,0.0988
20.6850,0.0000,0.0000,0.0587
20.6900,0.0000,0.0000,0.0460
20.6950,0.0000,0.0000,0.0451
20.7000,0.0000,0.0000,0.0007
20.7050,0.0000,0.0000,0.0474
20.7100,0.0000,0.0000,0.0150
20.7150,0.0000,0.0000,0.0241
20.7200,0.0000,0.0000,0.0392
20.7250,0.0000,0.0000,0.0118
20.7300,0.0000,0.0000,0.0806
20.7350,0.0000,0.0000,0.0647
20.7400,0.0000,0.0000,0.0053
20.7450,0.0000,0.0000,0.0172
20.7500,0.0000,0.0000,0.0551
20.7550,0.0000,0.0000,0.0225
20.7600,0.0000,0.0000,0.0003
20.7650,0.0000,0.0000,0.0341
20.7700,0.0000,0.0000,0.0525
20.7750,0.0000,0.0000,0.0682
20.7800,0.0000,0.0000,0.0452
20.7850,0.0000,0.0000,0.0273
20.7900,0.0000,0.0000,0.0286
20.7950,0.0000,0.0000,0.0340
20.8000,0.0000,0.0000,0.0883
20.8050,0.0000,0.0000,0.0388
20.8100,0.0000,0.0000,0.0366
20.8150,0.0000,0.0000,0.0293
20.8200,0.0000,0.0000,0.1148
20.8250,0.0000,0.0000,0.0777
20.8300,0.0000,0.0000,0.0108
20.8350,0.0000,0.0000,0.0194
20.8400,0.0000,0.0000,0.0855
20.8450,0.0000,0.0000,0.0211
20.8500,0.0000,0.0000,0.0586
20.8550,0.0000,0.0000,0.0060
20.8600,0.0000,0.0000,0.0554
20.8650,0.0000,0.0000,0.0155
20.8700,0.0000,0.0000,0.0198
20.8750,0.0000,0.0000,0.0399
20.8800,0.0000,0.0000,0.0108
20.8850,0.0000,0.0000,0.0498
20.8900,0.0000,0.0000,0.0385
20.8950,0.0000,0.0000,0.0059
20.9000,0.0000,0.0000,0.0506
20.9050,0.0000,0.0000,0.0380
20.9100,0.0000,0.0000,0.0030
20.9150,0.0000,0.0000,0.0401
20.9200,0.0000,0.0000,0.0079
20.9250,0.0000,0.0000,0.0039
20.9300,0.0000,0.0000,0.0512
20.9350,0.0000,0.0000,0.0269
20.9400,0.0000,0.0000,0.0026
20.9450,0.0000,0.0000,0.0305
20.9500,0.0000,0.0000,0.0432
20.9550,0.0000,0.0000,0.0627
20.9600,0.0000,0.0000,0.0555
20.9650,0.0000,0.0000,0.0566
20.9700,0.0000,0.0000,0.0476
20.9750,0.0000,0.0000,0.0111
20.9800,0.0000,0.0000,0.0605
20.9850,0.0000,0.0000,0.0025
20.9900,0.0000,0.0000,0.0343
20.9950,0.0000,0.0000,0.0585
21.0000,0.0000,0.0000,0.1326
21.0050,0.0000,0.0000,0.0174
21.0100,0.0000,0.0000,0.0817
21.0150,0.0000,0.0000,0.0025
21.0200,0.0000,0.0000,0.0239
21.0250,0.0000,0.0000,0.0377
